acc_x, acc_y, angular_z, stamp, 
0.00870966911315918, -0.012022793292999268, 1.7402090714476267e-06, 1759349334773463736, 
0.021196305751800537, -0.0067002177238464355, 1.5772853762226467e-06, 1759349334804444610, 
-0.004029393196105957, -0.0301588773727417, 1.5005382600612023e-06, 1759349334834374857, 
0.0049343109130859375, -0.019239962100982666, -0.0001281030862375096, 1759349334864311265, 
0.056459784507751465, 0.036349594593048096, 0.0012928613782722809, 1759349334895663537, 
0.5797489881515503, 0.8304413557052612, 0.08428060408943489, 1759349334927462762, 
0.5386883616447449, 0.16930639743804932, 0.40134126966659556, 1759349334954172672, 
0.17279374599456787, 0.1429573893547058, 0.4721754020716441, 1759349334984658509, 
0.33672744035720825, 0.01713883876800537, 0.5644626104084898, 1759349335014000301, 
0.307453989982605, 0.26513177156448364, 0.6622923104332921, 1759349335043965443, 
0.36859381198883057, 0.5623534321784973, 0.8047740213161411, 1759349335073968466, 
0.24776071310043335, 0.204062819480896, 0.9387677658400844, 1759349335103884856, 
0.1942541003227234, -0.12705284357070923, 0.9929156878205196, 1759349335135650181, 
-0.23889553546905518, 0.1108810305595398, 1.0530513103920045, 1759349335166730497, 
-0.2513274550437927, 0.2628828287124634, 1.1900883890797143, 1759349335193719911, 
-0.003072679042816162, 0.06713104248046875, 1.0582435762991946, 1759349335223599779, 
0.04192692041397095, -0.14199483394622803, 1.0321487218125687, 1759349335253520392, 
-0.448469340801239, -0.07541334629058838, 1.0225714858782036, 1759349335283513307, 
0.19853395223617554, 0.022604823112487793, 1.0425250987063868, 1759349335313441290, 
-0.11721289157867432, 0.34631097316741943, 1.0061683919484694, 1759349335343433805, 
-0.041429102420806885, -0.0060214996337890625, 0.9554502658646904, 1759349335375444491, 
-0.279252290725708, -0.11889445781707764, 1.108946207502997, 1759349335403279183, 
0.184719979763031, 0.2941552400588989, 1.045270747610064, 1759349335433219473, 
-0.25104403495788574, 0.0652611255645752, 1.0703066315037497, 1759349335462152391, 
0.17158734798431396, -0.08326709270477295, 0.9856424383875052, 1759349335493269273, 
0.20427268743515015, 0.32053816318511963, 1.0310850980139699, 1759349335523051676, 
0.009945392608642578, -0.19939136505126953, 1.0504030695488074, 1759349335552983147, 
0.17547756433486938, 0.2587645649909973, 1.0443959065395263, 1759349335583463571, 
-0.2942081689834595, 0.3385241627693176, 0.9911975679481557, 1759349335615759275, 
-0.17406469583511353, -0.4245293140411377, 1.1516238960166139, 1759349335642832867, 
0.3325275182723999, 0.37521088123321533, 1.031788350865599, 1759349335672739173, 
-0.3505536913871765, 0.26694464683532715, 1.0567148434562612, 1759349335702697835, 
0.11761707067489624, -0.3195234537124634, 1.0637393254006349, 1759349335732617233, 
0.017787694931030273, 0.3306775689125061, 1.0667981180805304, 1759349335762576215, 
-0.3732451796531677, -0.10399985313415527, 1.0602807680955741, 1759349335792577492, 
0.5151387453079224, -0.12982416152954102, 1.020687786250751, 1759349335823332272, 
-0.16114521026611328, 0.4535127878189087, 0.9547893827071458, 1759349335855700828, 
0.08639401197433472, -0.116943359375, 1.1829349491192382, 1759349335882412707, 
-0.03402101993560791, -0.007388412952423096, 1.0605262806787543, 1759349335912286905, 
-0.39817100763320923, -0.07078027725219727, 0.8885754585832935, 1759349335935803112, 
0.3028411865234375, -0.09196150302886963, 1.167246148279015, 1759349335971154499, 
0.033689677715301514, 0.03153085708618164, 1.0013118688921026, 1759349336002180375, 
0.13580411672592163, 0.2147257924079895, 1.0549937168977443, 1759349336032109592, 
0.06542408466339111, -0.055507004261016846, 1.014370559299691, 1759349336063629834, 
-0.17601370811462402, 0.006709277629852295, 0.9895774158158377, 1759349336095434119, 
0.14254653453826904, 0.09039086103439331, 1.186795010166398, 1759349336121889906, 
-0.2501119375228882, 0.020709872245788574, 1.050569430834108, 1759349336151826761, 
0.2383784055709839, 0.11873185634613037, 1.0673349254276352, 1759349336181800772, 
0.3763391971588135, 0.2016391158103943, 1.1677561183020986, 1759349336211841799, 
0.4318242073059082, 0.16390293836593628, 1.3195972999402104, 1759349336241728936, 
0.6474990844726562, 0.23254400491714478, 1.3864621231741168, 1759349336271645562, 
0.18263429403305054, 0.7052052617073059, 1.4144579913142508, 1759349336302561096, 
-0.01688981056213379, 0.34123069047927856, 1.5057798563346145, 1759349336333543170, 
-0.6569873094558716, 0.16138684749603271, 1.6561126676453541, 1759349336361431493, 
0.2699865698814392, 0.3971261978149414, 1.511041119598652, 1759349336391403229, 
-0.3455897569656372, 0.02929598093032837, 1.48930000938735, 1759349336421357647, 
0.4412342309951782, 0.1904088258743286, 1.4634204173153955, 1759349336451546427, 
-0.17942911386489868, 0.6771467924118042, 1.4448599006239986, 1759349336481257268, 
0.033773958683013916, 0.42395448684692383, 1.4150673290831393, 1759349336511660356, 
-0.17351269721984863, 0.1592513918876648, 1.3969024924121456, 1759349336543187251, 
-0.153143048286438, 0.6025493144989014, 1.648426330940895, 1759349336570153088, 
0.07079899311065674, 0.2519361972808838, 1.4662863154871437, 1759349336601000215, 
-0.2930871248245239, 0.35688745975494385, 1.5128991902888251, 1759349336630937505, 
-0.03569388389587402, 0.6720708608627319, 1.5174526513575515, 1759349336660891276, 
-0.21813637018203735, 0.2558755874633789, 1.5350877418421423, 1759349336691009820, 
-0.29938483238220215, -0.08906859159469604, 1.5228903925828503, 1759349336720804483, 
0.17422616481781006, -0.07415652275085449, 1.4437308425804143, 1759349336751603716, 
-0.1618604063987732, 0.536141574382782, 1.364484962256711, 1759349336783258737, 
0.5253511071205139, 0.5060185790061951, 1.5928686039954836, 1759349336810684484, 
-0.35750913619995117, 0.23421913385391235, 1.5122116984668763, 1759349336839531823, 
0.19802218675613403, 0.19435417652130127, 1.3971345833970363, 1759349336870495277, 
-0.40943068265914917, 0.2225487232208252, 1.4976591791762308, 1759349336900460439, 
-0.07835602760314941, 0.341388463973999, 1.5311114961854229, 1759349336930452426, 
-0.04250401258468628, 0.10330349206924438, 1.5323711884487643, 1759349336960384527, 
-0.1064806580543518, 0.34921795129776, 1.4652363837815332, 1759349336991424880, 
-0.26570403575897217, -0.13973349332809448, 1.3619704054034534, 1759349337023855060, 
-0.42519980669021606, -0.20490622520446777, 1.5834462855604683, 1759349337051092340, 
0.046999335289001465, -0.20844978094100952, 1.5324182747780002, 1759349337079127640, 
-0.037079572677612305, -0.039421677589416504, 1.377498360909158, 1759349337110095984, 
-0.15127354860305786, 0.24792951345443726, 1.3891003637401709, 1759349337140008652, 
-0.03867393732070923, 0.39922410249710083, 1.3758282919006295, 1759349337169924498, 
-0.8425461053848267, 0.3173321485519409, 1.3420994339966936, 1759349337199920728, 
0.2299138307571411, 0.2796061038970947, 1.2436820855120019, 1759349337231239671, 
-0.29911619424819946, 0.03739696741104126, 1.214602636596329, 1759349337262778166, 
-0.38648533821105957, 0.037376224994659424, 1.3671398105961738, 1759349337289780467, 
-0.10557860136032104, -0.22589904069900513, 1.1974685531884235, 1759349337319638602, 
-0.6828224658966064, -0.0568234920501709, 1.2268859066227384, 1759349337349656130, 
-0.4498135447502136, 0.08991700410842896, 1.2767964882668832, 1759349337379534613, 
-0.4003306031227112, 0.16918015480041504, 1.2646905302090983, 1759349337409485211, 
-0.1428372859954834, 0.07589763402938843, 1.236651057877307, 1759349337439460474, 
-0.3356096148490906, -0.3268123269081116, 1.117584945425167, 1759349337471950793, 
0.22539609670639038, -0.15360921621322632, 1.2194109786736134, 1759349337501403521, 
0.43157660961151123, 0.014960646629333496, 1.2373978259906784, 1759349337529279155, 
-0.07455414533615112, 0.4461231827735901, 1.128623073426797, 1759349337559164324, 
0.19474297761917114, 0.3180038332939148, 1.1458618539038397, 1759349337589107370, 
-0.5683435201644897, -0.500163733959198, 1.110822326691626, 1759349337619054963, 
-0.2168697714805603, -0.24160915613174438, 1.0965118333103174, 1759349337649006198, 
-0.2150142788887024, 0.5374931693077087, 1.0831573152454648, 1759349337679257528, 
-0.24126064777374268, 0.45660609006881714, 1.0018682316194656, 1759349337711286990, 
-0.37793684005737305, -0.5691286325454712, 1.1534244779236826, 1759349337738893725, 
-0.04840606451034546, -0.4305351972579956, 1.0687219803547616, 1759349337768817791, 
-0.2006891965866089, 0.8526596426963806, 1.061664940235873, 1759349337798777360, 
-0.10254108905792236, 0.38121455907821655, 1.0500727310779028, 1759349337828637836, 
-0.2638229727745056, -0.9171696305274963, 1.0588416918460486, 1759349337857613613, 
-0.0015979409217834473, -0.1648716926574707, 1.0007020886954283, 1759349337888526893, 
-0.12234628200531006, 0.8796770572662354, 0.9718780266401064, 1759349337919768806, 
-0.0064198970794677734, -0.2535242438316345, 0.9216417259964671, 1759349337951289099, 
0.8241947889328003, -0.4132460951805115, 1.0904025719452142, 1759349337978404034, 
-0.3725547194480896, 0.5667311549186707, 1.0020166442852134, 1759349338008339516, 
-0.020159363746643066, 0.09747540950775146, 0.9778332531630345, 1759349338038276945, 
-0.46013808250427246, -0.6215739250183105, 0.973129636965682, 1759349338068184057, 
0.6517542600631714, 0.3189162015914917, 1.0111651135720336, 1759349338098196419, 
-0.32071006298065186, 0.4323071241378784, 1.0203489514571416, 1759349338128268420, 
-0.30948716402053833, -0.43999993801116943, 0.9653745797047142, 1759349338159322411, 
-0.05273699760437012, 0.0133589506149292, 0.9250839509688766, 1759349338191316070, 
-0.2226579189300537, 0.5383520126342773, 1.1016087454098753, 1759349338218168078, 
0.5277448892593384, 0.07265156507492065, 1.0511240523301917, 1759349338247142332, 
-0.20211440324783325, -0.14464592933654785, 0.9803839315938876, 1759349338278039594, 
0.12300342321395874, 0.1286638379096985, 0.9958881023561686, 1759349338308048707, 
0.24695265293121338, 0.4198177456855774, 0.975081648371757, 1759349338337980188, 
0.11847859621047974, -0.22839021682739258, 0.9863259226146459, 1759349338367151313, 
0.30585789680480957, 0.06954264640808105, 0.9479591377459342, 1759349338399324519, 
-0.2286977767944336, 0.6334170699119568, 1.0079892580451717, 1759349338430065458, 
0.10153007507324219, -0.1888929009437561, 1.076363672883257, 1759349338457925148, 
-0.33095788955688477, -0.34216970205307007, 0.9940620865997806, 1759349338487957833, 
0.05531764030456543, 0.8711959719657898, 1.0267861238461822, 1759349338517884741, 
-0.19953477382659912, 0.23193740844726562, 1.0392968102828009, 1759349338547926828, 
-0.1323811411857605, -1.0087082386016846, 1.0527390692930043, 1759349338577820998, 
0.19268614053726196, 0.09629732370376587, 1.0490954557422778, 1759349338607910150, 
0.07179290056228638, 1.197635293006897, 0.9746928901839896, 1759349338639328519, 
-0.39153069257736206, -0.5240828990936279, 1.1027717159362393, 1759349338666128434, 
0.023271501064300537, -0.7168415784835815, 0.9635340526028365, 1759349338697043860, 
-0.015369653701782227, 0.8964555859565735, 1.0114717054902922, 1759349338726976346, 
-1.1851375102996826, 0.19228053092956543, 0.9914552823642279, 1759349338756915431, 
0.665083110332489, -0.8170084357261658, 1.0087409506293152, 1759349338786902638, 
-0.471412718296051, 0.37785232067108154, 1.0468076060769989, 1759349338816836064, 
0.11138296127319336, 0.7444496154785156, 1.0151081146027738, 1759349338847515845, 
-0.6117740273475647, -0.5652457475662231, 0.9263980659663306, 1759349338880002672, 
0.7687064409255981, -0.4477508068084717, 1.1549974918123782, 1759349338905715333, 
-0.18210971355438232, 0.8582011461257935, 0.9594030932324233, 1759349338936640177, 
-0.04492628574371338, 0.26433688402175903, 0.9969809605314183, 1759349338966494239, 
-0.2748766541481018, -0.505153238773346, 0.9972136320923035, 1759349338996476069, 
-0.3779110908508301, 0.23193591833114624, 1.0093728951927687, 1759349339026419870, 
0.35161590576171875, 0.5597164034843445, 1.0119052331467218, 1759349339056367664, 
-0.345634400844574, 0.029395699501037598, 0.9699369463703038, 1759349339087413903, 
0.32054269313812256, -0.22053951025009155, 0.9573980296038926, 1759349339119342584, 
-0.13452398777008057, 0.4627213478088379, 1.1213051930027995, 1759349339146312815, 
0.08515381813049316, 0.27119141817092896, 1.0185362024243862, 1759349339175215739, 
0.5551322102546692, -0.07224363088607788, 0.7945707002547059, 1759349339199727820, 
0.05962175130844116, -0.1638273000717163, 1.0910281524485945, 1759349339236021202, 
-0.2625651955604553, 0.42692846059799194, 0.9860110218371775, 1759349339265964405, 
-0.3071447014808655, 0.42517125606536865, 0.9919258195468811, 1759349339295923740, 
-0.337685763835907, -0.4686747193336487, 0.9296661551910561, 1759349339328070972, 
-0.27198857069015503, -0.030550658702850342, 0.9747117667006723, 1759349339358525036, 
0.0969994068145752, 0.6213495135307312, 1.1148675247733828, 1759349339385770170, 
-0.3442980647087097, 0.3384702801704407, 1.0265135522488358, 1759349339415640193, 
-0.12693017721176147, -0.761010468006134, 1.0559547065073427, 1759349339444657535, 
-0.04639852046966553, -0.03015875816345215, 0.982772188396947, 1759349339475586655, 
0.4148566722869873, -0.3008047342300415, 1.005648337551098, 1759349339505840576, 
-0.9190157055854797, 0.9967540502548218, 0.9806852668742663, 1759349339535923560, 
0.18824398517608643, -0.15952372550964355, 0.9451012082214946, 1759349339567463784, 
-0.2888451814651489, -0.7640022039413452, 1.062977663058017, 1759349339597500772, 
-0.2711491584777832, -0.7673463821411133, 1.1042773297474409, 1759349339635214853, 
0.019265592098236084, 0.10553115606307983, 1.0136756546550418, 1759349339665214498, 
0.7769052386283875, 0.895114541053772, 0.982278368147725, 1759349339695552441, 
-0.10778295993804932, -0.03979635238647461, 0.8953650007620703, 1759349339727465264, 
0.03276026248931885, -0.32647705078125, 1.0434381982642125, 1759349339755012281, 
-0.19722574949264526, 0.4809529185295105, 0.9937008210305387, 1759349339784985004, 
-0.2545087933540344, 0.6982553601264954, 1.0273988030943917, 1759349339814897646, 
-0.2132142186164856, -0.07655411958694458, 1.041351686988478, 1759349339844864366, 
0.21080338954925537, -0.37771284580230713, 1.0463367156210834, 1759349339874821200, 
0.47824931144714355, 0.31102824211120605, 1.0250099880892638, 1759349339904789113, 
-0.3815007209777832, 0.5171470046043396, 0.9392868532028138, 1759349339935656161, 
1.1880578994750977, 0.3299720287322998, 0.8799367152985542, 1759349339968168807, 
-0.5325742363929749, -0.2953473925590515, 1.1078258578724618, 1759349339994598353, 
-0.18030452728271484, 0.11008685827255249, 0.992989773827476, 1759349340024806743, 
-0.6193133592605591, -0.019691765308380127, 0.8660796330900857, 1759349340048012645, 
0.6524315476417542, 0.1343836784362793, 1.1084661608968767, 1759349340084408824, 
-0.24019742012023926, -0.4439995288848877, 1.016033556796317, 1759349340114317059, 
0.5173876285552979, 0.30310678482055664, 1.0095428873750247, 1759349340144303490, 
0.11402952671051025, 0.8029032349586487, 0.9628149268411043, 1759349340175783361, 
-0.06736552715301514, -0.009451746940612793, 0.945465441687017, 1759349340207470357, 
-0.37016981840133667, -0.42685556411743164, 1.1007973444166985, 1759349340234175081, 
0.7561347484588623, 0.06398969888687134, 0.9771334796225077, 1759349340264060878, 
-0.13995260000228882, 0.7165113687515259, 0.993049041362685, 1759349340293998404, 
0.27426308393478394, 0.3103674650192261, 1.0712682109588287, 1759349340323924445, 
-0.46366381645202637, -0.4778762459754944, 1.1037415072841377, 1759349340353894107, 
0.4526650905609131, -0.23544979095458984, 1.0521387589319307, 1759349340383871870, 
-0.025847434997558594, 0.6896722912788391, 0.8841343688402301, 1759349340416279753, 
0.08131104707717896, 0.44315600395202637, 0.9488050513404049, 1759349340445907650, 
0.2568638324737549, -0.1839655041694641, 1.052292295295287, 1759349340473730239, 
-0.5196471214294434, -0.09343951940536499, 1.0104397975513904, 1759349340503594607, 
0.646182656288147, 0.3991345167160034, 1.0111657105450262, 1759349340533539406, 
-0.11695677042007446, 0.29724419116973877, 1.018956154851071, 1759349340563466967, 
0.13951462507247925, -0.1799514889717102, 0.9896214804982542, 1759349340593459759, 
-0.25265705585479736, 0.024885058403015137, 0.9739683353704458, 1759349340623598104, 
0.31255996227264404, 0.27302122116088867, 0.9403644098762133, 1759349340655506938, 
-0.16683810949325562, 0.5482974052429199, 1.1021868899303104, 1759349340683353243, 
-0.19968479871749878, 0.052081525325775146, 1.0262095265310056, 1759349340713219457, 
-0.0013979673385620117, -0.3332642912864685, 1.0372546552495108, 1759349340742127738, 
0.0767897367477417, 0.07219421863555908, 0.9776443974030234, 1759349340772120513, 
-0.2971063256263733, 0.5856456160545349, 0.9514705849715953, 1759349340803077959, 
-0.22804343700408936, 0.5603799223899841, 1.0053776825282321, 1759349340833029604, 
-0.0820237398147583, -0.48477107286453247, 0.9711365042093053, 1759349340863965222, 
-0.3308529257774353, -0.44548749923706055, 0.9323762769756265, 1759349340895824744, 
0.3959135413169861, -0.17757952213287354, 1.0841692869267778, 1759349340932796724, 
0.024598896503448486, 0.674288272857666, 1.0592627019246128, 1759349340961756365, 
0.35999202728271484, 0.7655755877494812, 0.9960156620220831, 1759349340992739293, 
-0.21839386224746704, -0.019278764724731445, 0.9960831411748774, 1759349341023429411, 
-0.23076313734054565, -0.6383016109466553, 0.9545047763454418, 1759349341055887500, 
-0.11647343635559082, -0.02750164270401001, 1.1580572989692641, 1759349341082508156, 
0.6951309442520142, 0.6129052042961121, 1.0159630816712566, 1759349341112438565, 
-0.08994203805923462, 0.38872605562210083, 0.9661193653747683, 1759349341142359500, 
0.9617050886154175, 0.057792842388153076, 0.9980043242373171, 1759349341172327621, 
-0.30228090286254883, 0.0015218853950500488, 1.0241271631087554, 1759349341202294775, 
-0.7177370190620422, -0.1749354600906372, 1.0280359224970237, 1759349341232229187, 
-0.1125483512878418, 0.39211606979370117, 0.986260651988038, 1759349341263431043, 
-0.33075493574142456, 0.5681545734405518, 0.9215396174485568, 1759349341295792526, 
0.08698266744613647, -0.2898094654083252, 1.0919121241704568, 1759349341322058506, 
0.052077293395996094, -0.12366539239883423, 0.9488797512639591, 1759349341351975106, 
0.10435128211975098, 0.41871291399002075, 0.9962356843516897, 1759349341381913074, 
0.2837100625038147, 0.5075021386146545, 1.0362741993898628, 1759349341411872969, 
-0.23383450508117676, 0.19559043645858765, 1.0260377727846444, 1759349341442096607, 
0.2783089876174927, -0.34928804636001587, 1.0286316108257691, 1759349341471784605, 
-0.06673681735992432, -0.028681635856628418, 0.9295442002511259, 1759349341503802684, 
0.1864050030708313, 0.6240067481994629, 0.9749071105098498, 1759349341533580964, 
-0.13708043098449707, 0.3683239221572876, 1.077012597015208, 1759349341561609499, 
-0.27178478240966797, 0.0799022912979126, 1.0556119719325476, 1759349341591518399, 
0.15523827075958252, -0.16782933473587036, 1.0381915670603212, 1759349341621576576, 
0.013837158679962158, -0.2913133502006531, 1.007480319567189, 1759349341651434505, 
-0.22386521100997925, 0.4834291338920593, 0.9821598821667106, 1759349341681409255, 
-0.012826085090637207, 0.7596828937530518, 0.9904597514606234, 1759349341711452535, 
-0.6314980387687683, -0.017331361770629883, 0.9535481118891866, 1759349341743449449, 
0.14891189336776733, -0.7686798572540283, 1.104371730972837, 1759349341771239868, 
0.03815925121307373, -0.1510683298110962, 1.051114807180213, 1759349341800157171, 
0.4800949692726135, 0.8556168079376221, 0.9680457475126876, 1759349341831088053, 
-0.20824527740478516, 0.667599618434906, 1.0042540265959943, 1759349341861030097, 
-0.19137006998062134, -0.2978643774986267, 1.0142129466040208, 1759349341890993258, 
0.2792428731918335, -0.2612319588661194, 1.0287716334696937, 1759349341920978694, 
0.025773346424102783, 0.07293957471847534, 1.0314897704823722, 1759349341951126525, 
0.11729401350021362, 0.32198143005371094, 0.9290028299505535, 1759349341983463436, 
0.012825846672058105, 0.3874551057815552, 1.1022157488820705, 1759349342009867818, 
-0.17593985795974731, 0.5506356358528137, 0.9228304767355224, 1759349342040929678, 
-0.10902315378189087, 0.15804916620254517, 0.9981025468936947, 1759349342070688194, 
-0.16948288679122925, -0.16532164812088013, 1.0277978282484397, 1759349342100742423, 
0.03484469652175903, -0.13081669807434082, 1.0474395235161653, 1759349342130529736, 
0.03964632749557495, 0.21618252992630005, 1.0136650705557348, 1759349342160456994, 
0.040820419788360596, 0.34886491298675537, 0.961370330883741, 1759349342191475575, 
-0.031054377555847168, 0.03495508432388306, 0.9550158770232265, 1759349342223583133, 
-0.507608950138092, 0.2409733533859253, 1.1195354359497167, 1759349342250353992, 
0.3376326560974121, -0.2354481816291809, 0.9981045676701383, 1759349342280222978, 
-0.026260316371917725, -0.19638174772262573, 0.9877237844730404, 1759349342310204135, 
-0.25052523612976074, 0.33909207582473755, 1.0098766864835065, 1759349342339124485, 
0.30029231309890747, 0.5100159645080566, 0.965847923465051, 1759349342370092772, 
0.10521405935287476, 0.2768559455871582, 1.0333822676156839, 1759349342399121443, 
0.09632176160812378, -0.4240959882736206, 0.9352360842830967, 1759349342431462423, 
-0.12175524234771729, -0.34170061349868774, 0.9806284334397687, 1759349342462333080, 
0.09997594356536865, 0.18151456117630005, 1.0734283676189367, 1759349342489946016, 
-0.18538957834243774, 0.5622175931930542, 1.0123933199250892, 1759349342519754084, 
0.30799686908721924, 0.4976602792739868, 1.0199221741194082, 1759349342549772775, 
-0.24612891674041748, -0.45058661699295044, 1.0438676836470873, 1759349342579650794, 
-0.27794361114501953, -0.6689183115959167, 1.030061293914028, 1759349342609632658, 
0.8967399597167969, 0.3717000484466553, 1.0000624307787909, 1759349342639620427, 
-0.3702659606933594, 0.43980276584625244, 0.9411400313284733, 1759349342671684437, 
0.15687859058380127, 0.37259411811828613, 1.0208665223764133, 1759349342701566748, 
0.7517141103744507, 0.16274821758270264, 1.0987609611750517, 1759349342729532236, 
-0.15078037977218628, -0.112587571144104, 1.0230379698097316, 1759349342759293284, 
-0.29496413469314575, -0.23393887281417847, 0.9723780890797503, 1759349342789335711, 
-0.01165539026260376, 0.19260859489440918, 0.9878281531374766, 1759349342819178620, 
-0.597564160823822, -0.03460872173309326, 0.9898312408637864, 1759349342849178046, 
0.5277256369590759, 0.057108521461486816, 0.9693856599778792, 1759349342879605529, 
-0.12698668241500854, 0.3553343415260315, 0.8989063054312251, 1759349342912769485, 
0.035066068172454834, -0.05312293767929077, 1.1350644068440796, 1759349342939055698, 
0.05115079879760742, -0.17873317003250122, 0.9898602237431563, 1759349342968956983, 
-0.026758790016174316, 0.134396493434906, 0.9977323635475686, 1759349342998899723, 
0.05815094709396362, 0.40453004837036133, 1.0476602263134316, 1759349343027866361, 
-0.3990355134010315, 0.35313647985458374, 0.9694939413348266, 1759349343058838962, 
-0.24267297983169556, -0.16203927993774414, 1.0255285863284462, 1759349343088912474, 
0.04585540294647217, -0.2950674891471863, 1.0261785564154695, 1759349343119569179, 
0.11192107200622559, -0.3720722198486328, 0.9380420639356963, 1759349343152289776, 
-0.4045621156692505, -0.3571561574935913, 1.1024634804857927, 1759349343188681783, 
0.10128366947174072, -0.43663811683654785, 1.0041832239791393, 1759349343218436456, 
0.2381117343902588, 0.22749930620193481, 0.9934603925399457, 1759349343248473623, 
0.20993512868881226, 0.5744495987892151, 0.9866077450733373, 1759349343279580038, 
0.2879595160484314, 0.4071630835533142, 0.9515728329369866, 1759349343311513233, 
-0.424505352973938, -0.15678799152374268, 1.0853905024855197, 1759349343338444117, 
-0.043497562408447266, -0.12715697288513184, 0.9729466646962022, 1759349343368374738, 
0.06539255380630493, -0.2601020336151123, 1.0241581640363144, 1759349343398344455, 
-0.08953207731246948, 0.025750458240509033, 1.0249962357232647, 1759349343428338551, 
-0.12167304754257202, 0.4472970962524414, 1.0000199417032607, 1759349343458262455, 
0.07098990678787231, 0.47763878107070923, 0.9860693104335467, 1759349343488254429, 
-0.36082983016967773, -0.06815290451049805, 0.9732799828312154, 1759349343519545249, 
-0.33458036184310913, -0.22113525867462158, 0.9855313773381026, 1759349343550632954, 
0.1239243745803833, 0.09491074085235596, 1.1030674913522274, 1759349343578202892, 
0.09966254234313965, -0.01361304521560669, 1.0054138821091467, 1759349343608193162, 
-0.5878835916519165, 0.11212795972824097, 0.9861264573096457, 1759349343638223825, 
0.5114075541496277, 0.3699185252189636, 1.0017217287105606, 1759349343668187994, 
-0.32498985528945923, 0.29043668508529663, 0.9917226900655209, 1759349343698173008, 
0.043596088886260986, 0.06620359420776367, 0.970750766508877, 1759349343728170576, 
0.12211394309997559, -0.005816340446472168, 0.9334725976362568, 1759349343759582234, 
-0.20875632762908936, -0.2848644256591797, 1.0935539434311778, 1759349343787439216, 
0.04393225908279419, -0.14906412363052368, 1.044497047174307, 1759349343817375869, 
-0.1062394380569458, 0.57728511095047, 1.008754058951817, 1759349343847317839, 
-0.19996517896652222, 0.5066860914230347, 0.9891634389415698, 1759349343877213813, 
-0.1465548872947693, 0.3767778277397156, 1.0218801600495209, 1759349343907159666, 
-0.12176579236984253, 0.08193469047546387, 1.1021701108242314, 1759349343936132398, 
-0.6364067196846008, -0.07541078329086304, 0.972218977993419, 1759349343967587157, 
0.18520742654800415, -0.6846302151679993, 0.9257845486657353, 1759349344000055318, 
-0.22616565227508545, -0.1440480351448059, 1.1189715964193099, 1759349344027031990, 
0.2629621624946594, 0.45089346170425415, 1.020131422717519, 1759349344056905873, 
0.06428766250610352, 0.3043808341026306, 0.9742917740751236, 1759349344086827005, 
-0.5923710465431213, 0.17094796895980835, 0.9662045289808233, 1759349344116752183, 
-0.29612869024276733, 0.47910207509994507, 1.0064963937042046, 1759349344146701200, 
0.1460057497024536, 0.1079980731010437, 1.0399156493973796, 1759349344176649264, 
-0.01253974437713623, -0.32985711097717285, 0.9723217450548473, 1759349344207718632, 
-0.0526544451713562, -0.04060328006744385, 0.9241508636816277, 1759349344239584991, 
-0.22456324100494385, 0.1736631989479065, 1.1137110936551864, 1759349344266561273, 
-0.40560317039489746, 0.3744812607765198, 1.0226154274852266, 1759349344296399267, 
-0.07745850086212158, 0.2620745897293091, 1.0120057404951854, 1759349344326406104, 
-0.293842613697052, 0.2507851719856262, 0.9926470424915189, 1759349344356330878, 
-0.28814226388931274, 0.10943841934204102, 0.9785609447947331, 1759349344386338480, 
0.1325598955154419, 0.11419612169265747, 1.014216788181667, 1759349344416360214, 
-0.16559255123138428, -0.1927139163017273, 0.9693174400996174, 1759349344448188052, 
-0.2918127775192261, -0.022726595401763916, 0.9741455587842526, 1759349344478750985, 
0.1025078296661377, -0.3570564389228821, 1.0753246153982527, 1759349344506344453, 
-0.21391218900680542, -0.06649047136306763, 1.0160365643310123, 1759349344536052134, 
-0.10831719636917114, 0.2941855788230896, 1.0168395295598545, 1759349344566089402, 
0.009886085987091064, 0.384277880191803, 1.044692717610789, 1759349344595853274, 
-0.45252907276153564, 0.527842104434967, 1.0187595558122777, 1759349344625798789, 
0.37212544679641724, 0.4586174488067627, 0.9972636415934133, 1759349344655839967, 
-0.4776361584663391, 0.05265176296234131, 0.9350224018929505, 1759349344687750330, 
-0.04754573106765747, -0.4145945906639099, 1.0058572570702968, 1759349344717681417, 
-0.26658135652542114, -0.013334453105926514, 1.1214833082890339, 1759349344745563592, 
-0.04675745964050293, 0.10749268531799316, 1.0480760071048, 1759349344775484244, 
-0.02875441312789917, 0.04101157188415527, 1.024499425658958, 1759349344805462110, 
-0.19497078657150269, 0.18158239126205444, 0.9990359336037058, 1759349344835396133, 
-0.0831453800201416, 0.44912946224212646, 0.9914839312850272, 1759349344865362820, 
-0.08777213096618652, 0.16802763938903809, 1.0072087377356458, 1759349344895205038, 
0.0119742751121521, -0.011263489723205566, 0.9084426396965457, 1759349344928285482, 
-0.24119949340820312, 0.2819593548774719, 1.100113777722688, 1759349344955224161, 
0.31947678327560425, 0.3046097755432129, 1.0117142359573705, 1759349344984117282, 
-0.5778870582580566, -0.15157204866409302, 0.9526348971005035, 1759349345015005680, 
-0.019885361194610596, 0.18100762367248535, 0.9950483437927892, 1759349345044974263, 
-0.234433114528656, 0.15744775533676147, 1.0688564264220097, 1759349345073942087, 
0.3723514676094055, 0.18504077196121216, 1.0148518145827963, 1759349345104890676, 
0.18944674730300903, 0.4041447043418884, 1.0045014388839992, 1759349345135723875, 
0.16887688636779785, 0.4960464835166931, 0.939464232938471, 1759349345167663563, 
-0.26141518354415894, 0.36874711513519287, 1.0942423925051479, 1759349345194766778, 
0.48181676864624023, -0.1730085015296936, 0.997840919330838, 1759349345224683054, 
-0.1114954948425293, 0.15807890892028809, 0.8665480484828674, 1759349345247759333, 
-0.024177372455596924, -0.2547534704208374, 1.08643343531463, 1759349345284572483, 
-0.010716497898101807, -0.16561800241470337, 1.020379602065053, 1759349345314718893, 
-0.5030414462089539, 0.28752702474594116, 1.0189758035722625, 1759349345344449227, 
0.30527788400650024, 0.35485249757766724, 0.9355176523803082, 1759349345376262128, 
-0.3896446228027344, 0.464555561542511, 0.9420467085934052, 1759349345407930000, 
0.31023120880126953, 0.3848534822463989, 1.149731211670666, 1759349345434322105, 
0.04897034168243408, 0.5705170631408691, 1.0381129531661155, 1759349345464221570, 
0.014661669731140137, 0.2731243371963501, 1.0369124716937579, 1759349345494106399, 
-0.01390230655670166, -0.07534575462341309, 1.030860505624839, 1759349345524093083, 
-0.09232020378112793, -0.25417977571487427, 1.0134993665626937, 1759349345554057613, 
-0.8128584623336792, 0.12269651889801025, 1.0083030182813841, 1759349345583248068, 
0.0034407377243041992, 0.09396636486053467, 0.90533885067185, 1759349345615652230, 
-0.23445731401443481, -0.04896819591522217, 0.9781919381706512, 1759349345645811853, 
0.5124295353889465, 0.4451753497123718, 1.0605904346377233, 1759349345673772425, 
-0.08335769176483154, 0.7513476014137268, 0.9937857669393051, 1759349345703769126, 
0.031482994556427, 0.47945815324783325, 1.005230160065924, 1759349345733657795, 
-0.23089736700057983, 0.0029422640800476074, 1.027461445861621, 1759349345763618360, 
-0.0852888822555542, 0.47122037410736084, 1.0447510372731397, 1759349345793608470, 
-0.4631338119506836, 0.27853715419769287, 1.0085240185566773, 1759349345824236141, 
0.36695611476898193, -0.13384634256362915, 0.9677139212179917, 1759349345856312964, 
0.10161209106445312, -0.02126532793045044, 1.1422369137662234, 1759349345883464373, 
-0.32680201530456543, 0.059008896350860596, 1.015953081698357, 1759349345913315080, 
-0.10364824533462524, -0.3438199758529663, 0.9969335086768654, 1759349345943305284, 
-0.1799735426902771, 0.01732492446899414, 0.9884195141306157, 1759349345973207577, 
0.29844915866851807, 0.5811075568199158, 0.9945792364878565, 1759349346003210894, 
-0.2426726222038269, 0.46773219108581543, 1.056935072798896, 1759349346032147692, 
-0.016164541244506836, 0.4129266142845154, 0.9702299142079448, 1759349346063709957, 
0.291347861289978, 0.6728918552398682, 0.9431576297018159, 1759349346095209839, 
-0.2371419072151184, 0.3490314483642578, 1.132718042756214, 1759349346122243870, 
-0.2295597791671753, 0.20497357845306396, 1.0110550922903905, 1759349346152855849, 
0.0065874457359313965, 0.4479142427444458, 1.001146056275397, 1759349346182866776, 
-0.08054482936859131, -0.15827083587646484, 1.000086621534501, 1759349346212758697, 
0.3193824887275696, -0.08636629581451416, 1.048982137875205, 1759349346242750316, 
-0.18350952863693237, 0.16271138191223145, 0.9900734137381703, 1759349346272704567, 
-0.13199061155319214, 0.06919115781784058, 0.909497600112172, 1759349346304021664, 
-0.10123544931411743, -0.07185816764831543, 0.9443175981632166, 1759349346336021047, 
-0.009471595287322998, 0.09400910139083862, 1.1200691331829071, 1759349346372449603, 
0.10355120897293091, 0.2334555983543396, 0.9874790751895661, 1759349346402423524, 
-0.3833523988723755, -0.21318429708480835, 1.0139444370445785, 1759349346432416451, 
0.27081042528152466, -0.18156403303146362, 0.9764443009810388, 1759349346463618382, 
-0.4577982425689697, 0.3981325626373291, 0.9504331460003266, 1759349346495295707, 
0.5755482316017151, -0.28312772512435913, 1.1422288870254937, 1759349346531151626, 
-0.07740038633346558, -0.1137244701385498, 0.9744328605293264, 1759349346562263621, 
-0.47885531187057495, 0.22727137804031372, 0.9813578168253736, 1759349346592080150, 
0.37348371744155884, 0.34215450286865234, 0.9585538594450761, 1759349346623101031, 
-0.028388142585754395, 0.19461196660995483, 0.9772874079300704, 1759349346653517936, 
0.16011720895767212, 0.463972270488739, 1.0410344035930947, 1759349346681882216, 
0.2125346064567566, 0.7894838452339172, 1.0154865463379181, 1759349346711791807, 
-0.013524770736694336, 0.2624049782752991, 1.0154983502129467, 1759349346741753575, 
-0.1646188497543335, 0.3038676381111145, 0.9982214564982518, 1759349346771829059, 
0.0682668685913086, 0.43560487031936646, 1.020526404676321, 1759349346801664743, 
-0.0006227493286132812, 0.265079140663147, 1.0042830063016945, 1759349346832198361, 
1.0737757682800293, 0.4015640616416931, 0.952015960944845, 1759349346863673848, 
-0.23202723264694214, 0.19102084636688232, 1.0642033236518849, 1759349346891610354, 
0.6703149080276489, 0.21613967418670654, 1.0352876226195322, 1759349346921504160, 
0.3018977642059326, 0.28985393047332764, 1.0172834951183254, 1759349346951450053, 
-0.7424015402793884, -0.14598554372787476, 0.9984784362689568, 1759349346981396956, 
0.03995096683502197, 0.5759044289588928, 0.9893172964386954, 1759349347011480610, 
-0.8325097560882568, -0.188371479511261, 0.9880622218946433, 1759349347041273417, 
0.049968063831329346, -0.1817222237586975, 0.989566185506808, 1759349347071136637, 
0.4986271262168884, 0.15616601705551147, 0.9329583050117095, 1759349347103963767, 
0.1960248351097107, 0.0321805477142334, 1.1153207575680868, 1759349347131098022, 
0.14757084846496582, -0.4251783490180969, 1.0351512059772923, 1759349347160979528, 
-0.7136889100074768, 0.35364723205566406, 1.0602341460064566, 1759349347190898134, 
0.5415207147598267, -0.021231353282928467, 1.030557368363684, 1759349347220874883, 
-0.14419865608215332, -0.005668222904205322, 0.9630931977489213, 1759349347250825653, 
0.24413734674453735, 0.384995698928833, 0.9659059312627337, 1759349347280763852, 
0.22626042366027832, 0.5041570663452148, 0.9541649861870752, 1759349347311760328, 
-0.4017215967178345, 0.6010887026786804, 0.9176709318614247, 1759349347343777460, 
0.18795257806777954, 0.3993324041366577, 1.1126336083607813, 1759349347370653424, 
0.34465116262435913, 0.3001832365989685, 1.0290753427257946, 1759349347400536847, 
0.03297621011734009, 0.4492397904396057, 1.010384148288152, 1759349347430501843, 
0.31822460889816284, 0.3958161473274231, 0.9942110897856241, 1759349347460437218, 
0.06203806400299072, 0.22715359926223755, 0.9726466089096556, 1759349347490395675, 
0.5480045080184937, 0.07766139507293701, 0.9737863072102806, 1759349347520334691, 
-0.3521420955657959, 0.043340861797332764, 0.9443585582321022, 1759349347551721430, 
0.25983333587646484, 0.1756572127342224, 0.9237114154781214, 1759349347583232782, 
-0.17851102352142334, -0.1651553511619568, 1.0675318571058496, 1759349347610214736, 
-0.5494694709777832, -0.06964296102523804, 0.9833741661713328, 1759349347640068500, 
0.6179236769676208, -0.10630643367767334, 0.9589877524950057, 1759349347670062314, 
-0.19874036312103271, 0.3499782681465149, 0.9651703333250968, 1759349347699971222, 
0.17468243837356567, -0.2103482484817505, 0.9842036063163186, 1759349347729973683, 
0.14580047130584717, 0.07628923654556274, 1.0202273650667328, 1759349347759811200, 
-0.349814772605896, 0.7767810821533203, 0.9579829077174477, 1759349347791727673, 
0.4178009033203125, 0.0015513896942138672, 1.0310784197568912, 1759349347821806920, 
0.1279732584953308, 0.06411248445510864, 1.0914021226868764, 1759349347849680236, 
0.4285966753959656, 0.6167095303535461, 1.0080545976889148, 1759349347879672960, 
0.2832547426223755, 0.5688396692276001, 1.0230547157747925, 1759349347909574113, 
-0.3141636848449707, 0.21139615774154663, 1.0147541498455432, 1759349347939530253, 
-0.1331883668899536, 0.5182388424873352, 1.0077424664857875, 1759349347969511558, 
0.4398934841156006, 0.2856362462043762, 0.990612999997584, 1759349347999925360, 
-0.1356603503227234, 0.30076420307159424, 0.9155429266686181, 1759349348032184367, 
0.196727454662323, 0.4326433539390564, 1.1025113939728817, 1759349348059351390, 
-0.018175721168518066, 0.34807461500167847, 0.9916064076057322, 1759349348089265321, 
0.6326382160186768, 0.19055688381195068, 0.9697951961000832, 1759349348119205120, 
-0.44588178396224976, -0.026460111141204834, 1.005829379225044, 1759349348148152732, 
0.03778964281082153, 0.22132980823516846, 0.9921416190029363, 1759349348178044920, 
-0.08627986907958984, 0.41598010063171387, 0.9899577059635625, 1759349348209054660, 
-0.15281623601913452, 0.04153043031692505, 1.004447475725371, 1759349348239742484, 
0.6630806922912598, 0.20032954216003418, 0.9589205088123557, 1759349348271788318, 
-0.5180003046989441, 0.26670944690704346, 1.1024208204168493, 1759349348298933476, 
-0.2429453730583191, -0.013960838317871094, 1.0094008776524597, 1759349348328820527, 
-0.009362399578094482, -0.05862855911254883, 0.9891751405491327, 1759349348358706510, 
-0.6376064419746399, -0.13806694746017456, 0.9620617114782696, 1759349348388701847, 
1.0352989435195923, -0.1958875060081482, 0.9983154858490109, 1759349348418649733, 
-0.19563668966293335, 0.04801660776138306, 1.0080710119382905, 1759349348448695442, 
-0.3304111957550049, -0.3950861692428589, 0.9444148469525252, 1759349348480410826, 
0.0886182188987732, 0.14046984910964966, 0.9745224935229373, 1759349348512048560, 
-0.38649898767471313, 0.1988336443901062, 1.1485903750773745, 1759349348538730311, 
0.03030925989151001, -0.48728859424591064, 1.0433997791088279, 1759349348568508722, 
-0.45706868171691895, -0.019491970539093018, 1.0350646965003762, 1759349348598573972, 
0.7490959167480469, -0.07392621040344238, 1.024579380960842, 1759349348628464049, 
-0.5201913118362427, -0.03707832098007202, 0.9837489659243543, 1759349348658386627, 
0.23144149780273438, -0.024823665618896484, 0.9624767024263498, 1759349348688478590, 
0.03183317184448242, 0.3335276246070862, 0.9451351183115257, 1759349348719765940, 
-0.01307457685470581, 0.052780330181121826, 1.0147880425055444, 1759349348750648843, 
0.2566651701927185, 0.061557888984680176, 1.120136457852826, 1759349348778391159, 
-0.2952498197555542, 0.10070788860321045, 1.01507982430478, 1759349348808406861, 
0.5891112089157104, -0.17118370532989502, 0.9971580235524689, 1759349348838391721, 
-0.1589018702507019, 0.3363354802131653, 0.9577916606351036, 1759349348868367973, 
0.5001434087753296, 0.1403740644454956, 0.9796654709270969, 1759349348898342530, 
0.13016092777252197, 0.01895993947982788, 1.0271874566783075, 1759349348928336225, 
0.21328485012054443, 0.2484346628189087, 0.965308850822378, 1759349348960074649, 
-0.030797302722930908, 0.0624316930770874, 1.1059734557059908, 1759349348987590349, 
-0.25319939851760864, 0.2163611650466919, 0.9796228721258048, 1759349349017610200, 
0.20881587266921997, -0.053444087505340576, 0.9582305780354798, 1759349349047483818, 
-0.02020210027694702, 0.20282822847366333, 0.9797518924472549, 1759349349077364117, 
0.07275348901748657, 0.674552321434021, 1.0289496242512535, 1759349349107305502, 
0.09177309274673462, -0.04716223478317261, 1.0802210439521749, 1759349349137249707, 
-0.2580816149711609, -0.12171244621276855, 1.02368540572109, 1759349349167864042, 
0.14593636989593506, 0.47712957859039307, 0.9363857682562444, 1759349349199761402, 
-0.5008084774017334, 0.1395142674446106, 1.1359382152501105, 1759349349225125845, 
0.3722785711288452, 0.0925564169883728, 0.9306151776617946, 1759349349257020555, 
-0.023850679397583008, 0.3452720046043396, 1.012824161229768, 1759349349287029721, 
-0.020752370357513428, 0.10270291566848755, 0.993438665176053, 1759349349316963071, 
-0.37049925327301025, -0.055339515209198, 0.9477471201857387, 1759349349346910017, 
-0.02102065086364746, 0.5623818635940552, 0.9334219899452494, 1759349349376894978, 
0.3201492428779602, 0.3608928322792053, 0.9661209595032113, 1759349349408185577, 
-0.14944696426391602, 0.25042009353637695, 0.9705416118355091, 1759349349440217021, 
-0.16918599605560303, 0.1254667043685913, 1.1676529491017094, 1759349349466748051, 
0.11042124032974243, 0.22594314813613892, 0.9957878815130896, 1759349349496636176, 
0.18758386373519897, -0.09753113985061646, 0.9833582257156096, 1759349349526751444, 
-0.31720805168151855, -0.2344895601272583, 0.9931391598417276, 1759349349556605552, 
0.048443377017974854, 0.3444262742996216, 0.978985469150732, 1759349349586591966, 
0.5873429179191589, 0.009608864784240723, 1.0206920725126385, 1759349349616443987, 
0.374725341796875, -0.42399048805236816, 0.9827469167763058, 1759349349647910361, 
-0.5254576206207275, -0.2644422650337219, 0.9804043442257192, 1759349349678813027, 
0.38373857736587524, 0.4930915832519531, 1.1301109454915488, 1759349349706285366, 
-0.17593014240264893, 0.11132222414016724, 1.0630556486414233, 1759349349735194187, 
-0.36371737718582153, -0.5526946783065796, 0.9948666117894204, 1759349349766035582, 
-0.0876915454864502, 0.347673237323761, 1.0148722704463269, 1759349349796000602, 
0.31280821561813354, 0.14965927600860596, 0.9992448039639957, 1759349349826291327, 
-0.24759328365325928, -0.015377700328826904, 1.0100679802747923, 1759349349856262149, 
-0.7625572681427002, 0.005409419536590576, 0.9041741288060916, 1759349349888645557, 
0.4119699001312256, 0.19771534204483032, 1.08930822475657, 1759349349915831098, 
-0.3211473226547241, 0.14530587196350098, 1.0096988886638238, 1759349349945674023, 
0.20656824111938477, -0.009405732154846191, 0.999779801511391, 1759349349975677606, 
-0.4396011233329773, 0.1369810700416565, 0.9775956031564936, 1759349350005612887, 
0.029429733753204346, 0.09190595149993896, 0.9760260190945949, 1759349350035527684, 
-0.3289254903793335, 0.5318990349769592, 1.0120373523379018, 1759349350065529715, 
0.0003281831741333008, 0.2115187644958496, 0.9811866871094189, 1759349350095945722, 
0.11291885375976562, 0.007987260818481445, 0.9285106292223597, 1759349350128108439, 
-0.31455451250076294, 0.26677727699279785, 1.1152784658202677, 1759349350155374134, 
0.23125743865966797, 0.39948147535324097, 1.0480965636714168, 1759349350185275514, 
-0.03999882936477661, 0.29017555713653564, 1.023235064024931, 1759349350215232009, 
-0.11882418394088745, 0.48090094327926636, 1.0671276777174123, 1759349350243147073, 
-0.33055806159973145, 0.48168861865997314, 0.9277184868300601, 1759349350275085181, 
-0.15357530117034912, 0.3298923373222351, 0.9883079026288903, 1759349350305044962, 
-0.5628459453582764, 0.24655556678771973, 0.943188632206259, 1759349350336560338, 
-0.11771982908248901, 0.4852054715156555, 0.9645872350448295, 1759349350367905479, 
0.09433412551879883, 0.16208398342132568, 1.1568376382990608, 1759349350394949057, 
-0.2201961874961853, 0.33253228664398193, 1.0522300688326436, 1759349350424748007, 
0.35383838415145874, 0.016851961612701416, 0.8799944171781394, 1759349350447879548, 
-0.22103917598724365, 0.40782105922698975, 1.0654156850723935, 1759349350484686696, 
0.24420398473739624, 0.20243018865585327, 1.0087925371202724, 1759349350514605343, 
-0.49965906143188477, 0.1802464723587036, 0.9932197341170326, 1759349350544625504, 
0.35960322618484497, 0.26142311096191406, 0.9384604234850616, 1759349350576022882, 
-0.2026318907737732, 0.10078716278076172, 0.9772915779664544, 1759349350607520866, 
-0.5354535579681396, 0.1642690896987915, 1.1498411007274598, 1759349350634489988, 
0.5819579362869263, -0.018213629722595215, 0.9924268141687115, 1759349350664355324, 
-0.9508050084114075, 0.47244852781295776, 0.8550833371463499, 1759349350687085930, 
0.8120691180229187, -0.11086821556091309, 1.0611852673578364, 1759349350724233470, 
-0.22046387195587158, 0.1749563217163086, 1.076137026208844, 1759349350752151355, 
0.11251461505889893, 0.173939049243927, 0.9441137119701073, 1759349350784637352, 
-0.36953121423721313, -0.04880446195602417, 0.9848441175332339, 1759349350815936510, 
-0.09415781497955322, 0.0028363466262817383, 0.9944787748730419, 1759349350846042188, 
0.11117130517959595, 0.31250476837158203, 1.068910927115547, 1759349350873958644, 
-0.6031949520111084, 0.1863793134689331, 1.003034548336617, 1759349350903890042, 
0.35690563917160034, 0.04802042245864868, 1.0004564095883737, 1759349350933821760, 
-0.11921489238739014, 0.41658610105514526, 0.9995860231410245, 1759349350963774888, 
0.15330874919891357, 0.06705594062805176, 1.0018106527621622, 1759349350993725831, 
-0.3672071695327759, 0.14309436082839966, 0.9684283161480637, 1759349351023967822, 
0.15617281198501587, 0.5614370107650757, 0.9278569502652708, 1759349351055986379, 
-0.23793482780456543, 0.2582392692565918, 1.1092521400224793, 1759349351083619038, 
-0.2229054570198059, 0.18303513526916504, 1.0305018061994746, 1759349351113502207, 
-0.04511368274688721, 0.43550217151641846, 1.0299007847244286, 1759349351143415399, 
-0.11403131484985352, 0.46630269289016724, 1.000033367404101, 1759349351173388798, 
0.35826873779296875, 0.23316442966461182, 0.9873210143978153, 1759349351203339636, 
-0.19700020551681519, 0.22163110971450806, 0.9756818655457253, 1759349351233279574, 
0.1403605341911316, 0.062401533126831055, 0.9465265884155276, 1759349351264109484, 
-0.08471512794494629, 0.21761620044708252, 0.9188221325553955, 1759349351296366526, 
0.14226990938186646, 0.28362786769866943, 1.1113394951926145, 1759349351333089433, 
-0.3070458769798279, 0.21918749809265137, 1.0304570190244073, 1759349351363017565, 
-0.21034890413284302, 0.3475169539451599, 1.0246609527853316, 1759349351392985879, 
-0.24054861068725586, 0.3894665241241455, 0.9748771927229611, 1759349351424592193, 
-0.009967625141143799, 0.5171123743057251, 0.9657935203254306, 1759349351455991168, 
-0.5668685436248779, 0.23944079875946045, 1.1283889474099469, 1759349351482864825, 
-0.2165520191192627, 0.4850742220878601, 0.9938007101915997, 1759349351512770846, 
0.3423038125038147, 0.45987653732299805, 0.8390000679041287, 1759349351536307206, 
-0.5781362056732178, 0.2780304551124573, 1.1090828677612126, 1759349351572644748, 
0.2676439881324768, 0.13340121507644653, 1.0148550002711252, 1759349351602609597, 
-0.14303666353225708, 0.3184773921966553, 0.98453339346958, 1759349351632587851, 
0.1070324182510376, 0.2896447777748108, 0.9433708800191095, 1759349351663884227, 
-0.06959313154220581, 0.18996024131774902, 0.9788315489306098, 1759349351694134202, 
-0.2850111722946167, 0.24159926176071167, 1.0647827850948817, 1759349351722325444, 
-0.11807280778884888, -0.06378495693206787, 1.0138901076205922, 1759349351752312953, 
-0.3134869337081909, 0.2965204119682312, 1.0396280332061965, 1759349351781278119, 
-0.0990835428237915, 0.28530818223953247, 0.9682104023642615, 1759349351812391250, 
0.30775415897369385, 0.08270126581192017, 1.0096039460638582, 1759349351842174348, 
-0.1511351466178894, 0.3144006133079529, 0.9674992740942432, 1759349351872820282, 
0.30235815048217773, 0.44648659229278564, 0.9707346510774068, 1759349351903884740, 
0.1537047028541565, 0.3648686408996582, 1.056316973388425, 1759349351932086265, 
0.26705455780029297, -0.11195820569992065, 1.0219246310382188, 1759349351961219070, 
-0.3138434886932373, 0.4254986643791199, 0.9784934135877523, 1759349351992054381, 
-0.5323832631111145, 0.09379613399505615, 1.0513656362651624, 1759349352021826943, 
-0.1614314317703247, 0.09387272596359253, 1.028979262552131, 1759349352051858909, 
-0.5924034714698792, 0.3151889443397522, 1.0065717136240449, 1759349352081703207, 
0.7775124907493591, 0.21053600311279297, 1.0171835027635823, 1759349352111905587, 
-0.3353062868118286, 0.5712592005729675, 0.931545457302559, 1759349352143946575, 
0.0567784309387207, 0.3450673818588257, 1.0598774164502496, 1759349352171569801, 
-0.2501664161682129, 0.06342649459838867, 0.9769416570336806, 1759349352201424802, 
-0.27578312158584595, 0.09901636838912964, 1.014059877124567, 1759349352231417237, 
-0.19358158111572266, 0.4413876533508301, 1.018190814676122, 1759349352261345407, 
0.9989973306655884, 0.15647029876708984, 1.0166728524982185, 1759349352291266527, 
-0.5102283358573914, 0.5234076380729675, 1.0402423665942777, 1759349352320273202, 
0.30404603481292725, 0.17665040493011475, 0.9377337816607587, 1759349352352173638, 
-0.5142431259155273, 0.216652512550354, 0.9171498241561198, 1759349352384398571, 
0.15605378150939941, 0.08736526966094971, 1.1359250444931386, 1759349352411085980, 
-0.0525173544883728, 0.18359947204589844, 1.0052600252775579, 1759349352440972905, 
0.5474116802215576, 0.038192927837371826, 1.0158462023206416, 1759349352470965086, 
0.139617919921875, 0.8158508539199829, 0.9943269306512905, 1759349352500885155, 
-0.07988351583480835, 0.1366492509841919, 0.9933709146689976, 1759349352530813485, 
-0.2674047350883484, 0.5400594472885132, 0.9968021574994423, 1759349352560819544, 
-0.1905096173286438, 0.38598132133483887, 0.952119051270301, 1759349352591926868, 
-0.2570376992225647, 0.42771607637405396, 0.9409899743705465, 1759349352623919515, 
-0.17748522758483887, 0.03147292137145996, 1.1594241166133579, 1759349352650702587, 
-0.028663337230682373, 0.11349606513977051, 1.03123217982705, 1759349352680528555, 
-0.21853852272033691, 0.10398775339126587, 0.9900330276604433, 1759349352710516736, 
0.3237342834472656, 0.1571071743965149, 0.9837026948608246, 1759349352740436054, 
-0.6961823105812073, 0.32765936851501465, 0.9622869305420372, 1759349352770412151, 
0.7353306412696838, 0.4850369691848755, 0.9697724480794351, 1759349352800320154, 
-0.7473239302635193, 0.18780964612960815, 0.9192247440573516, 1759349352832379716, 
0.18410104513168335, 0.05337768793106079, 0.9959671554191132, 1759349352862680549, 
-0.22568362951278687, 0.5502076745033264, 1.1334317078718663, 1759349352890173548, 
0.6937400698661804, 0.2271960973739624, 1.060344994690521, 1759349352920048209, 
-0.22165530920028687, 0.444424569606781, 1.0104381743456423, 1759349352950054591, 
0.21645700931549072, 0.20999902486801147, 0.9788898862708988, 1759349352980009513, 
0.08116692304611206, 0.4235920310020447, 0.995802014101571, 1759349353009922170, 
-0.23508697748184204, -0.007799088954925537, 1.010347328920848, 1759349353040048407, 
-0.3116071820259094, -0.07971882820129395, 0.9456284013584648, 1759349353071964657, 
0.46827709674835205, 0.3822932839393616, 1.1069414480300905, 1759349353099780628, 
0.03141975402832031, 0.4694787859916687, 1.0352232227713214, 1759349353129777355, 
0.32891184091567993, 0.608206033706665, 1.003776538009295, 1759349353159603061, 
-0.09295356273651123, 0.3899071216583252, 0.9956702974439217, 1759349353189639646, 
0.10797971487045288, 0.5086119174957275, 1.0009413521451236, 1759349353219534435, 
-0.3773708939552307, 0.08348745107650757, 1.017738933386189, 1759349353249490553, 
0.41743141412734985, 0.37250739336013794, 0.9772478741816797, 1759349353280414418, 
0.0649951696395874, -0.11479461193084717, 0.936284339927892, 1759349353312760169, 
-0.3282553553581238, -0.05143612623214722, 1.1282786475277398, 1759349353339267653, 
0.6406228542327881, 0.4556264281272888, 1.0049809441993183, 1759349353369277020, 
-0.2774128317832947, 0.5231438875198364, 1.0016417947876828, 1759349353399200672, 
0.4520314335823059, 0.5857843160629272, 0.9707886928919145, 1759349353429180905, 
-0.3349441885948181, 0.085243821144104, 0.9768467012931237, 1759349353459055565, 
0.15141499042510986, 0.6404305696487427, 1.005422257513671, 1759349353489063133, 
-0.655992865562439, 0.3916814923286438, 1.0419777646118027, 1759349353519128258, 
0.3012162446975708, 0.204969584941864, 0.9256897199727486, 1759349353552285553, 
-0.7279239296913147, -0.4143667221069336, 1.142896626056537, 1759349353578965508, 
0.3217579126358032, 0.015600860118865967, 1.0064444428719923, 1759349353608916293, 
-0.07482528686523438, 0.37028950452804565, 0.9875872743294841, 1759349353638839343, 
0.10357964038848877, 0.21435773372650146, 0.9944479455448622, 1759349353668896815, 
-0.1724487543106079, 0.42887550592422485, 1.0126762265735514, 1759349353698811694, 
0.4176252484321594, 0.6496965289115906, 1.0173570248332182, 1759349353728900279, 
0.15643799304962158, 0.4499511122703552, 0.9550365670191262, 1759349353760012566, 
-0.7941524982452393, -0.11886012554168701, 0.9538785031637371, 1759349353791510205, 
0.16033393144607544, 0.19535773992538452, 1.1270488339556377, 1759349353818731505, 
-0.2727106809616089, 0.0841909646987915, 1.0185172782761032, 1759349353848741011, 
0.24367237091064453, -0.3262064456939697, 1.0095742578318732, 1759349353878608913, 
-0.19596856832504272, 0.26366424560546875, 1.0121572068540718, 1759349353908634182, 
0.18176501989364624, 0.276678204536438, 1.0158920330908126, 1759349353938620384, 
0.26063674688339233, 0.8252501487731934, 0.9705571862902542, 1759349353968680527, 
0.274572491645813, 0.19128388166427612, 0.9174933470474796, 1759349354000239714, 
-0.10630357265472412, 0.4089357852935791, 1.0076176874300946, 1759349354030068530, 
-0.027782917022705078, 0.05112874507904053, 1.0664297644653227, 1759349354058559301, 
0.24109363555908203, -0.05753374099731445, 1.059240916315245, 1759349354088595819, 
0.2616664171218872, 0.1475008726119995, 1.0682595517198625, 1759349354117832621, 
-0.1724960207939148, 0.00457608699798584, 1.0079780628117292, 1759349354147849313, 
0.09300178289413452, 0.565159261226654, 1.0087848464081333, 1759349354177742905, 
-0.21380293369293213, 0.5654110908508301, 0.9705478442753052, 1759349354208376286, 
-0.12443822622299194, 0.26906800270080566, 0.9152915903537494, 1759349354240462765, 
0.28372901678085327, 0.1571316123008728, 1.1072280255914069, 1759349354267620931, 
0.08858174085617065, 0.05119091272354126, 1.038616281945374, 1759349354297558788, 
0.07628470659255981, 0.11861652135848999, 0.9784145497147775, 1759349354327528773, 
0.011860251426696777, 0.36497068405151367, 0.9573801987727947, 1759349354347558037, 
-0.38802385330200195, 0.17352938652038574, 1.0197879934665688, 1759349354387332434, 
0.1881917119026184, 0.6111051440238953, 1.053150217615865, 1759349354416404747, 
-0.3057187795639038, -0.13304471969604492, 0.9331653916268818, 1759349354448509507, 
0.7787091135978699, -0.26529866456985474, 0.9570450147877998, 1759349354479974398, 
-0.19839537143707275, 0.24846488237380981, 1.0515354828563876, 1759349354507175541, 
0.22340643405914307, 0.247735857963562, 1.0194688551835684, 1759349354536118887, 
-0.07301604747772217, 0.39082908630371094, 0.9707259050008376, 1759349354566975345, 
0.3946865200996399, 0.7376917600631714, 1.0219219176962067, 1759349354596895379, 
-0.28561878204345703, 0.09361416101455688, 1.0229982240640638, 1759349354626818188, 
0.27812087535858154, -0.17511916160583496, 1.035634241602457, 1759349354656842598, 
-0.08361572027206421, 0.02739250659942627, 0.9703685853047408, 1759349354688514140, 
0.32595765590667725, -0.09152793884277344, 0.953694917108455, 1759349354720018895, 
-0.029711127281188965, 0.2499101161956787, 1.0992548051918685, 1759349354746700436, 
0.2335604429244995, 0.8923178911209106, 0.9910565996689098, 1759349354776524059, 
0.0344201922416687, 0.20091688632965088, 0.9976017931365341, 1759349354806517777, 
0.14447718858718872, 0.23078572750091553, 1.0113722218834513, 1759349354836463961, 
0.33815205097198486, 0.28802621364593506, 1.0259966401676952, 1759349354866371835, 
-0.13072055578231812, 0.07815766334533691, 1.0255386199990124, 1759349354895537818, 
0.021335899829864502, -0.14162248373031616, 0.9068693795053387, 1759349354928175057, 
0.01170271635055542, 0.5172236561775208, 0.9833116028545225, 1759349354958749915, 
0.1738569736480713, 0.358539879322052, 1.096816956916442, 1759349354986254076, 
0.2902483344078064, 0.360176682472229, 0.9842497137358208, 1759349355016092850, 
-0.012333691120147705, 0.38334643840789795, 0.8846488655556916, 1759349355038283763, 
0.010716140270233154, 0.526314914226532, 1.0739776722739243, 1759349355066041459, 
0.24779683351516724, 0.5091202855110168, 0.9941541545912405, 1759349355095915440, 
-0.25432002544403076, 0.41400521993637085, 0.9953430107852487, 1759349355125894716, 
0.06953704357147217, -0.253526508808136, 1.015564985382571, 1759349355155882301, 
-0.2832617163658142, -0.037927985191345215, 1.005612590876927, 1759349355185796704, 
-0.07595312595367432, 0.2757151126861572, 0.9947667485866476, 1759349355216429197, 
0.19261568784713745, 0.5408697128295898, 0.9608959562914303, 1759349355248416737, 
-0.2578040361404419, 0.4086146354675293, 1.0955706058273011, 1759349355275655581, 
0.25789016485214233, -0.025068342685699463, 0.9738772137415517, 1759349355305600564, 
-0.40712785720825195, 0.18729853630065918, 0.9720596755580548, 1759349355335629830, 
-0.09982854127883911, 0.034222185611724854, 0.9708389181664092, 1759349355365430927, 
-0.08766525983810425, 0.24147886037826538, 0.9688022793109694, 1759349355395409761, 
-0.08023959398269653, 0.16557985544204712, 1.0112094765044781, 1759349355425314046, 
-0.2579244375228882, 0.35292065143585205, 0.9542270681748201, 1759349355456837847, 
0.651831865310669, 0.2879796624183655, 0.953819236436349, 1759349355488102928, 
-0.5340333580970764, 0.14669644832611084, 1.1003540514512757, 1759349355515184905, 
0.2539583444595337, 0.10277456045150757, 0.9777226204427849, 1759349355545083381, 
-0.42563724517822266, 0.1173219084739685, 0.9855986955506738, 1759349355575000482, 
0.18842065334320068, 0.2979700565338135, 1.0052610145848586, 1759349355604963880, 
-0.34490078687667847, 0.29436439275741577, 1.0056733327657517, 1759349355634915347, 
0.21241533756256104, 0.08614093065261841, 0.9865450455763709, 1759349355664904970, 
-0.13127785921096802, 0.33610421419143677, 0.9255835484062999, 1759349355696362076, 
0.1836109161376953, -0.14304274320602417, 0.9081498747930737, 1759349355728258308, 
-0.08353948593139648, -0.24275821447372437, 1.1286762254022884, 1759349355754773423, 
0.04896891117095947, 0.2728680968284607, 1.0130649672453, 1759349355784659036, 
0.6054630279541016, 0.08431369066238403, 0.8972931521707606, 1759349355807441193, 
-0.08528876304626465, 0.3659803867340088, 1.0737401372069577, 1759349355844530909, 
0.14989125728607178, 0.22258496284484863, 0.9591508197703369, 1759349355874526407, 
-0.24255132675170898, -0.011056184768676758, 0.9297622023146481, 1759349355905006813, 
-0.1155514121055603, 0.21980547904968262, 0.9550190833090948, 1759349355935262710, 
0.3740772604942322, 0.17391151189804077, 0.9305825063798804, 1759349355966863095, 
-0.31572240591049194, 0.29705923795700073, 1.0727965554539667, 1759349355994230062, 
0.3465527296066284, 0.18428802490234375, 0.9661734136043298, 1759349356024205474, 
-0.05940866470336914, 0.49749642610549927, 0.8587339305379976, 1759349356046257408, 
0.2379850149154663, 0.11939358711242676, 1.0290511796884336, 1759349356084044848, 
-0.4499396085739136, -0.290172278881073, 0.991428121081637, 1759349356114069575, 
0.2534577250480652, 0.18856674432754517, 0.9830974996650474, 1759349356144073549, 
0.12216001749038696, 0.5001903176307678, 0.9099169523850843, 1759349356176359765, 
0.16091012954711914, 0.8354010581970215, 1.0587058605996988, 1759349356203937783, 
0.12625044584274292, 0.2527201175689697, 0.9799014211053312, 1759349356233786230, 
-0.2524285912513733, -0.3019601106643677, 1.0054048037484826, 1759349356263738727, 
-0.11311095952987671, -0.306848406791687, 1.016245121301405, 1759349356293709800, 
0.4714154601097107, 0.4911975860595703, 1.0196902638887202, 1759349356323608355, 
-0.2802720069885254, 0.4675823450088501, 1.003684762913637, 1759349356353614890, 
0.1479063630104065, 0.24168050289154053, 0.955220066052933, 1759349356384356048, 
-0.4824196696281433, 0.5030607581138611, 0.887946675887144, 1759349356416674859, 
0.2190161943435669, 0.020216286182403564, 1.1412202949329695, 1759349356442437367, 
-0.4651191830635071, 0.060824811458587646, 0.960491691924312, 1759349356473312363, 
0.5335366725921631, 0.2928241491317749, 0.9938982418122195, 1759349356503299886, 
-0.5484092831611633, 0.028488218784332275, 0.9793605054011313, 1759349356533225147, 
0.29457950592041016, 0.4743794798851013, 1.0000882441133112, 1759349356562130415, 
-0.2485520839691162, -0.10919886827468872, 0.9379049963610896, 1759349356593190905, 
-0.2045254111289978, 0.11304527521133423, 0.9507762891773602, 1759349356624115347, 
-0.1978430151939392, 0.006861269474029541, 0.9052876387596724, 1759349356656363584, 
-0.2842543125152588, 0.46952569484710693, 1.0941423230808014, 1759349356682973608, 
-0.022441327571868896, 0.5743046998977661, 0.976273993252468, 1759349356712986007, 
-0.36670947074890137, 0.26321572065353394, 0.9679535351012368, 1759349356742927891, 
-0.047269582748413086, -0.21749389171600342, 0.9587726300228268, 1759349356773117508, 
-0.4740326404571533, -0.33555829524993896, 0.9674132810631617, 1759349356802828181, 
0.15994036197662354, 0.49866169691085815, 0.9438164244413055, 1759349356832876330, 
-0.39808958768844604, 0.36578500270843506, 0.8824954454675489, 1759349356864598588, 
0.1533268690109253, 0.2634068727493286, 0.9092450710771937, 1759349356895195066, 
-0.3895984888076782, 0.24450159072875977, 1.0165942244254542, 1759349356932804687, 
0.1920386552810669, 0.20798027515411377, 0.9612712490694383, 1759349356962518364, 
-0.08527398109436035, 0.15079301595687866, 0.9458165318981996, 1759349356992801280, 
-0.006081223487854004, 0.17102432250976562, 0.9042154602338367, 1759349357024453711, 
-0.08179253339767456, 0.3127322196960449, 0.9889910320353352, 1759349357052256541, 
-0.35563743114471436, 0.0021257996559143066, 0.9383778760813276, 1759349357082181673, 
-0.33639001846313477, 0.40610259771347046, 0.9407283280712809, 1759349357112182215, 
0.05293053388595581, 0.2992885112762451, 0.9416835006003255, 1759349357142066818, 
-0.35083532333374023, 0.3581772446632385, 0.9806319517138452, 1759349357172018859, 
-0.15487253665924072, -0.23426705598831177, 1.0014120581212067, 1759349357201970621, 
-0.3087705969810486, 0.15327602624893188, 0.95969939042281, 1759349357232233271, 
0.1452290415763855, 0.5830946564674377, 0.9146113351947517, 1759349357263143085, 
-0.35626643896102905, 0.2286663055419922, 0.962185953275093, 1759349357291914332, 
-0.10280764102935791, 0.6140652894973755, 0.9477444010457029, 1759349357321742490, 
0.20682001113891602, -0.062478721141815186, 0.980416919583603, 1759349357351685873, 
0.23640519380569458, 0.1856645941734314, 0.9720538567897375, 1759349357381652320, 
0.04291212558746338, 0.29731297492980957, 0.9312891783058874, 1759349357411602948, 
0.46723324060440063, 0.38179969787597656, 0.9110432362163424, 1759349357441513385, 
-0.5706146359443665, 0.24334877729415894, 0.9259938066356802, 1759349357471676687, 
0.6075739860534668, 0.23241782188415527, 0.8605714418124261, 1759349357504557850, 
0.6844366788864136, 0.19821703433990479, 1.0419706070198818, 1759349357531346362, 
0.13247203826904297, 0.5014309287071228, 0.9413316066669676, 1759349357561289557, 
-0.05102580785751343, 0.3453623652458191, 0.9341076296788834, 1759349357591292599, 
0.1150701642036438, 0.524507999420166, 0.943716082934946, 1759349357621157498, 
-0.2682247757911682, 0.024179518222808838, 0.9328143833392765, 1759349357651447467, 
0.3743133544921875, 0.3534180521965027, 0.9592677734512308, 1759349357681040452, 
0.31800127029418945, 0.03185582160949707, 0.8990005407534054, 1759349357712284704, 
-0.34435850381851196, 0.12983697652816772, 0.9007753661136159, 1759349357743158079, 
0.03797566890716553, 0.6053435802459717, 1.0097465331364535, 1759349357770913891, 
-0.6721763610839844, 0.2596067786216736, 0.9204687476115756, 1759349357800853034, 
-0.20176732540130615, 0.32544589042663574, 0.9334331860396609, 1759349357830802928, 
-0.012110650539398193, 0.2317289113998413, 0.9392573906645658, 1759349357860704064, 
0.009454548358917236, -0.003603816032409668, 0.9142058093632687, 1759349357890927765, 
-0.15812337398529053, 0.18527179956436157, 0.9311735707398339, 1759349357920648058, 
-0.1412675380706787, 0.25289642810821533, 0.8636398811252368, 1759349357952726248, 
-0.21600914001464844, 0.25284093618392944, 0.9463738943664124, 1759349357982317186, 
-0.10919016599655151, 0.54386967420578, 1.028392649563518, 1759349358010442492, 
0.11531132459640503, 0.052905142307281494, 0.9593076265288435, 1759349358040382136, 
-0.10218667984008789, 0.34029620885849, 0.8137983202899722, 1759349358063293625, 
0.43688273429870605, 0.23386597633361816, 0.9695888437206187, 1759349358100224713, 
-0.5149445533752441, 0.2587391138076782, 0.915730588505161, 1759349358130418299, 
0.08888685703277588, 0.37884384393692017, 0.9288995618256308, 1759349358160167806, 
-0.05445873737335205, 0.09191495180130005, 0.865473415391511, 1759349358192189164, 
0.03667449951171875, 0.1398448944091797, 1.0185157667328264, 1759349358220067267, 
-0.0799332857131958, 0.2928491234779358, 0.9416105942307261, 1759349358250023425, 
-0.04014986753463745, 0.7950371503829956, 0.9413265253238379, 1759349358279939750, 
-0.36897188425064087, 0.3431949019432068, 0.9335320496832086, 1759349358309897947, 
-0.08390498161315918, 0.13147848844528198, 0.9279207756797441, 1759349358339808255, 
-0.4981353282928467, 0.23810851573944092, 0.8956513498109561, 1759349358369808031, 
0.07809561491012573, 0.11707568168640137, 0.8473215706964211, 1759349358400586444, 
-0.18562406301498413, 0.2769801616668701, 0.8172725029238261, 1759349358432168328, 
-0.8308664560317993, -0.3116419315338135, 0.9787750070124988, 1759349358459684840, 
-0.41944509744644165, 0.5506534576416016, 0.8512582741537192, 1759349358489553575, 
1.920582890510559, 0.8414555788040161, 0.8875330995145362, 1759349358519477462, 
0.73783278465271, -0.5115365386009216, 0.9363436006003578, 1759349358549467155, 
0.5976443886756897, 0.28691738843917847, 0.8835937788223336, 1759349358579324631, 
0.5745220184326172, 0.5827561020851135, 0.8569109073745269, 1759349358609399218, 
-0.5675047039985657, 0.30910223722457886, 0.8617646179573191, 1759349358640407708, 
-0.06441593170166016, 0.15283948183059692, 0.8340988851038986, 1759349358672428528, 
0.08428347110748291, 0.5476059913635254, 0.9885983776227723, 1759349358699329690, 
0.4201629161834717, -0.15018516778945923, 0.8900458262336106, 1759349358729201778, 
-0.3981707692146301, -0.0004832744598388672, 0.9201451900995143, 1759349358758142775, 
-0.2929839491844177, 0.7319992184638977, 0.8823380137905046, 1759349358789113326, 
-0.18157196044921875, 0.2986644506454468, 0.9399038454191637, 1759349358819097906, 
-0.3792080283164978, 0.3081660866737366, 0.954222179508295, 1759349358848142576, 
0.3847779631614685, -0.07035702466964722, 0.8623902558749039, 1759349358880193046, 
-0.6956127285957336, 0.27812355756759644, 0.8371567268447655, 1759349358911723963, 
0.7113058567047119, 0.18580996990203857, 0.9763506896876049, 1759349358939024915, 
-0.40612030029296875, 0.015524804592132568, 0.8842168022158893, 1759349358968929755, 
-0.04614979028701782, 0.5740233659744263, 0.876291203873527, 1759349358998904310, 
0.2848655581474304, 0.7050736546516418, 0.8845867083034552, 1759349359028895091, 
-0.17330604791641235, 0.05624103546142578, 0.8750008829528915, 1759349359058842248, 
-0.11377501487731934, 0.22722148895263672, 0.8382225130747066, 1759349359088969433, 
-0.06873244047164917, -0.06993257999420166, 0.8459475308484933, 1759349359120247827, 
-0.3437647819519043, 0.6243244409561157, 0.914401305495751, 1759349359150351562, 
-0.0881395936012268, 0.4858950972557068, 0.9470933146709196, 1759349359178794425, 
-0.15306979417800903, 0.22274935245513916, 0.8857945479400093, 1759349359208787196, 
-0.2260494828224182, 0.2640841007232666, 0.8984286468891358, 1759349359238800968, 
0.20457780361175537, -0.27419430017471313, 0.9019998370773139, 1759349359268864824, 
-0.06650632619857788, 0.42271435260772705, 0.9477560193388951, 1759349359298060172, 
0.4655386805534363, 0.8138812780380249, 0.916860383044433, 1759349359328321959, 
-0.4028567671775818, 0.21246337890625, 0.8212663753352855, 1759349359360646442, 
0.3691088557243347, 0.42019617557525635, 0.9810858822320745, 1759349359387988974, 
-0.6752572059631348, 0.5153302550315857, 0.9059999880031365, 1759349359418083950, 
0.3271612524986267, 0.3941558599472046, 0.9060809408944024, 1759349359447956734, 
-0.40072542428970337, 0.2841252088546753, 0.9060688376374607, 1759349359477673329, 
0.396242618560791, 0.3788166046142578, 0.8877494108239375, 1759349359507663543, 
0.08490490913391113, 0.16918176412582397, 0.8586154520689767, 1759349359537565471, 
-0.5007849931716919, 0.2111731767654419, 0.8490758990061409, 1759349359568336016, 
0.42261314392089844, 0.5761391520500183, 0.819470000734069, 1759349359600555347, 
-0.2421797513961792, 0.06568753719329834, 1.0036096621759432, 1759349359627424899, 
0.2193007469177246, 0.49735844135284424, 0.9236530633137432, 1759349359657349095, 
-0.16185706853866577, 0.09415555000305176, 0.9280410061530189, 1759349359687273399, 
0.310571551322937, 0.18409734964370728, 0.9015378609711021, 1759349359717166280, 
-0.3522745370864868, 0.40970468521118164, 0.891010888950001, 1759349359747171795, 
0.1606646180152893, 0.3986407518386841, 0.9111322307877863, 1759349359777090127, 
-0.08978778123855591, 0.6235105395317078, 0.8578576944303115, 1759349359808771918, 
0.3361515998840332, 0.1380932331085205, 0.8240432269056682, 1759349359840654987, 
-0.25854748487472534, 0.22390639781951904, 1.005455940946037, 1759349359867013812, 
-0.3414804935455322, 0.1680547595024109, 0.9148372424569033, 1759349359896880728, 
0.22812122106552124, 0.24606776237487793, 0.9200092274425669, 1759349359926824386, 
-0.2496352195739746, 0.4351825714111328, 0.8933665871592716, 1759349359956742238, 
0.10493862628936768, 0.1469612717628479, 0.8891131264525106, 1759349359986724024, 
-0.28814446926116943, 0.12145966291427612, 0.8915607175544928, 1759349360016670947, 
0.16440296173095703, 0.5442713499069214, 0.8598137875324415, 1759349360047956675, 
0.03852945566177368, 0.03406494855880737, 0.8718110785281822, 1759349360078547998, 
-0.21637529134750366, 0.4561351537704468, 0.9348824259261247, 1759349360106468436, 
-0.0030976533889770508, 0.33470356464385986, 0.864117907765369, 1759349360136415944, 
-0.12417632341384888, -0.5901606678962708, 0.8708353914119249, 1759349360166386404, 
-0.025054216384887695, 0.4549630880355835, 0.8793643133698984, 1759349360196335539, 
0.5741870999336243, 0.8157581686973572, 0.9246106497138906, 1759349360226342028, 
-0.011155188083648682, 0.2407580018043518, 0.9090977443996536, 1759349360257011668, 
0.082145094871521, 0.27660369873046875, 0.8548514820040466, 1759349360288362702, 
0.07069510221481323, 0.6210981607437134, 0.9558500713463364, 1759349360316263653, 
-0.23535829782485962, -0.30227792263031006, 0.8797454679920365, 1759349360345990454, 
0.19677186012268066, 0.09860700368881226, 0.8767576664921274, 1759349360375952448, 
0.33822721242904663, 0.3041667342185974, 0.8972311169424092, 1759349360405914811, 
-0.5321942567825317, 0.31109756231307983, 0.8612489726137337, 1759349360435827070, 
-0.0024985671043395996, 0.6675814390182495, 0.8478470022363581, 1759349360465828237, 
-0.28050947189331055, 0.037199556827545166, 0.8380271449226533, 1759349360496732062, 
-0.19319993257522583, -0.12132370471954346, 0.8395492386277531, 1759349360528348761, 
0.2338734269142151, 0.6747376918792725, 0.9675084912990891, 1759349360555771160, 
-0.25514447689056396, -0.05066061019897461, 0.8340930431576011, 1759349360585523233, 
0.5155553221702576, 0.424748957157135, 0.8402044428615515, 1759349360615492146, 
-0.0487019419670105, 0.4376786947250366, 0.860656940260836, 1759349360645449097, 
-0.20466166734695435, -0.08426439762115479, 0.8523600862926157, 1759349360675384218, 
-0.2291489839553833, 0.026322364807128906, 0.8759169409363384, 1759349360705361973, 
0.6936876773834229, 0.4291052222251892, 0.8497935391751131, 1759349360736655410, 
-0.15029633045196533, 0.42383861541748047, 0.8249585884600452, 1759349360768767778, 
0.02520155906677246, 0.5110283493995667, 0.9869837026448927, 1759349360795217121, 
0.06173962354660034, 0.41254985332489014, 0.8594484358582507, 1759349360825079056, 
-0.18326294422149658, 0.34714609384536743, 0.735502228242442, 1759349360848663881, 
0.217021644115448, 0.48091477155685425, 0.9657832110052813, 1759349360884991466, 
0.12698936462402344, 0.11556047201156616, 0.8498138817777331, 1759349360914916925, 
-0.35027915239334106, 0.06916826963424683, 0.8491430667673289, 1759349360945005250, 
0.8129763603210449, 0.7370738983154297, 0.8118280201648334, 1759349360976719507, 
-0.14466100931167603, 0.04746013879776001, 0.831914112760177, 1759349361007414935, 
0.04673033952713013, 0.05261582136154175, 0.9299378205486029, 1759349361034800009, 
0.1644180417060852, 0.4387979507446289, 0.8594218895233794, 1759349361064688521, 
0.03966224193572998, 0.0705154538154602, 0.7891358158797537, 1759349361086058856, 
-0.5248004794120789, 0.7654268741607666, 0.8581080390643091, 1759349361124566627, 
0.010556995868682861, 0.18407297134399414, 0.8451531737755779, 1759349361154511585, 
-0.003279745578765869, -0.16707658767700195, 0.8848280992552412, 1759349361184489273, 
0.010535895824432373, 0.4397718906402588, 0.7934954599369523, 1759349361216950960, 
0.18912726640701294, 0.36592262983322144, 0.9411116391803002, 1759349361244393161, 
-0.3646412491798401, -0.058264315128326416, 0.8700881122478229, 1759349361274263669, 
0.23105370998382568, 0.5718846917152405, 0.8764152500188731, 1759349361304198829, 
0.1322457194328308, 0.5093787908554077, 0.935110024302474, 1759349361333118777, 
-0.12126696109771729, 0.018412768840789795, 0.8376442446737401, 1759349361364098709, 
0.3675851821899414, 0.30688536167144775, 0.8381679376951522, 1759349361394086523, 
-0.12655997276306152, -0.33063942193984985, 0.8454166709096922, 1759349361424309116, 
-0.39255768060684204, 0.22099369764328003, 0.8002397749989388, 1759349361456488082, 
0.3370860815048218, 0.8550794124603271, 0.9419883883305104, 1759349361483994711, 
-0.14918255805969238, -0.15430468320846558, 0.8874422161395923, 1759349361513828520, 
0.2965238690376282, 0.09503871202468872, 0.8592286485815482, 1759349361543758918, 
-0.16846877336502075, 0.562583327293396, 0.8268777324171152, 1759349361573663785, 
-0.22193807363510132, -0.3441809415817261, 0.8864063824771551, 1759349361602622680, 
-0.2940600514411926, 0.716099739074707, 0.8508269452210409, 1759349361633615770, 
0.4155377149581909, 0.41211915016174316, 0.8598955633397075, 1759349361664744225, 
-0.38091832399368286, -0.28526729345321655, 0.8156691995314344, 1759349361696443491, 
-0.33340370655059814, 0.2567182183265686, 0.9047306636996012, 1759349361733370877, 
0.3190739154815674, 0.44416534900665283, 0.860311739331972, 1759349361763368200, 
0.2571449875831604, 0.27505600452423096, 0.8809249586356027, 1759349361793308625, 
0.016043126583099365, 0.023335933685302734, 0.8372201489843852, 1759349361824362177, 
0.15863406658172607, -0.0903928279876709, 0.819238203902284, 1759349361856692617, 
-0.115925133228302, 0.35757988691329956, 0.9596255943615764, 1759349361884034515, 
-0.08943098783493042, -0.4161375164985657, 0.8643397316082939, 1759349361913908123, 
-0.5309056043624878, 0.3251652121543884, 0.9186447058044589, 1759349361942134218, 
0.660705029964447, 0.3713582158088684, 0.8132826084904696, 1759349361973103819, 
-0.17899823188781738, -0.38675957918167114, 0.8027307256009782, 1759349362002927701, 
0.003924846649169922, 0.5830788016319275, 0.8058789078575089, 1759349362032859299, 
-0.13548731803894043, 0.578734815120697, 0.7804686542177014, 1759349362064518338, 
0.4243789315223694, -0.3640980124473572, 0.8536972211310316, 1759349362095318538, 
-0.26933610439300537, 0.4988791346549988, 0.9578462179809613, 1759349362122673715, 
0.6591210961341858, 0.409466028213501, 0.8592131873073406, 1759349362151590022, 
-0.604732871055603, -0.11692184209823608, 0.8114190309346022, 1759349362182539877, 
0.19337612390518188, 0.5052869915962219, 0.8372199963390592, 1759349362212502712, 
-0.04980182647705078, 0.4330849051475525, 0.8433092164296974, 1759349362242467764, 
-0.28386443853378296, -0.4532098174095154, 0.8600801864398859, 1759349362272517362, 
-0.12292170524597168, 0.1494491696357727, 0.7968801779959724, 1759349362304771673, 
0.2542527914047241, 0.2800549268722534, 0.9194501548780768, 1759349362332419256, 
-0.17164689302444458, 0.17169791460037231, 0.8684430110382678, 1759349362362158334, 
0.017313838005065918, 0.8557999730110168, 0.8867296161042705, 1759349362391148405, 
0.5816680788993835, -0.2990586757659912, 0.817386633957825, 1759349362422080868, 
-0.4247560501098633, -0.11708986759185791, 0.8446329281708219, 1759349362452019095, 
-0.13973993062973022, 0.6125802397727966, 0.8180590173822808, 1759349362482017117, 
-0.08364295959472656, -0.06550145149230957, 0.8134760242351426, 1759349362512664596, 
0.010058164596557617, -0.0002606511116027832, 0.8200014986436742, 1759349362544473079, 
0.1514686942100525, 0.602663516998291, 0.9307530121119719, 1759349362571857008, 
0.001958191394805908, -0.18220049142837524, 0.8275265428833258, 1759349362601740362, 
-0.43299978971481323, 0.17379891872406006, 0.8789914185994064, 1759349362630665093, 
0.5154284238815308, 0.371093213558197, 0.8108256363912905, 1759349362661640440, 
0.10932117700576782, 0.24295729398727417, 0.8633476849854699, 1759349362691573203, 
0.07608610391616821, 0.20163053274154663, 0.8581121798044588, 1759349362721529927, 
-0.28386062383651733, 0.46631425619125366, 0.7900131517783903, 1759349362753092315, 
0.07649821043014526, -0.48392677307128906, 0.8105084974090139, 1759349362784353433, 
-0.30087631940841675, -0.11178761720657349, 0.9640855728631261, 1759349362811409687, 
0.0715634822845459, 0.8626441955566406, 0.884003164517715, 1759349362841275677, 
0.3886539340019226, 0.08039510250091553, 0.8520565531181656, 1759349362871192794, 
-0.5450889468193054, 0.3124864101409912, 0.8288145784507711, 1759349362901184402, 
0.22499388456344604, 0.20190972089767456, 0.8374369920917075, 1759349362931089457, 
-0.502394437789917, -0.5225468873977661, 0.8372000988882341, 1759349362961104258, 
0.3694719672203064, 0.4379009008407593, 0.8263475760202847, 1759349362992384161, 
-0.16920769214630127, 0.5453668832778931, 0.8202823758070736, 1759349363024344471, 
-0.06684350967407227, -0.42431801557540894, 0.9481985257143642, 1759349363051002636, 
-0.11316198110580444, 0.42624396085739136, 0.8191217754747164, 1759349363080852640, 
0.03248840570449829, 0.25421321392059326, 0.8365902646439899, 1759349363110767893, 
0.12741464376449585, 0.2269350290298462, 0.8504980288311419, 1759349363140756683, 
-0.12136143445968628, 0.29600048065185547, 0.8465083776145841, 1759349363170654238, 
0.109000563621521, 0.4757453203201294, 0.8255800814847819, 1759349363200866435, 
-0.18880945444107056, -0.27381396293640137, 0.7868205057390746, 1759349363232398207, 
-0.8239803314208984, 0.1490902304649353, 0.8602062299397167, 1759349363262502897, 
-0.05606120824813843, 0.24507290124893188, 0.9306589961975318, 1759349363290437869, 
-0.03920269012451172, -0.16467487812042236, 0.8273383171792146, 1759349363320366725, 
-0.4654614329338074, 0.6389306783676147, 0.8098170959827249, 1759349363350323101, 
0.21990108489990234, 0.3617997169494629, 0.7927600608726806, 1759349363380258973, 
-0.6854756474494934, -0.3321874141693115, 0.7900215293930196, 1759349363410246066, 
0.1392773985862732, -0.39333415031433105, 0.823033643279293, 1759349363440411299, 
-0.5365505814552307, 0.4510422348976135, 0.7835569671730808, 1759349363472664752, 
0.12117505073547363, 0.20892083644866943, 0.8803604681811595, 1759349363500171258, 
-0.21127861738204956, 0.05813378095626831, 0.801022265482079, 1759349363530004730, 
0.026368558406829834, 0.4641790986061096, 0.8185997832622005, 1759349363559941680, 
0.07459020614624023, 0.24657243490219116, 0.8545802747360886, 1759349363589933555, 
-0.3637824058532715, 0.03420281410217285, 0.8496445771298134, 1759349363619831681, 
0.3700893521308899, 0.47336000204086304, 0.8217418340619361, 1759349363649785160, 
-0.08487558364868164, -0.05157417058944702, 0.7848371532687407, 1759349363680408924, 
-0.30099576711654663, 0.04317033290863037, 0.751649297483782, 1759349363712836262, 
-0.09055560827255249, 0.3818976879119873, 0.9205258031442162, 1759349363739650846, 
0.4028726816177368, 0.014109313488006592, 0.825422377343371, 1759349363769543378, 
