acc_x, acc_y, angular_z, stamp, 
0.020155727863311768, -0.01741039752960205, 2.072382542327406e-11, 1759349564521853007, 
0.003618299961090088, -0.005109846591949463, 1.1547276519274702e-10, 1759349564552413772, 
-0.0021810531616210938, 0.001881241798400879, 2.1201371448881063e-10, 1759349564580709923, 
-0.00966024398803711, 0.0036486387252807617, 2.4835933277793515e-10, 1759349564610585422, 
-0.02790200710296631, 0.016178667545318604, 2.5329638285679765e-10, 1759349564640518866, 
-0.004494607448577881, 0.01436835527420044, 2.591476599751225e-10, 1759349564670494094, 
-0.015272140502929688, -0.02503800392150879, 2.634992255697882e-10, 1759349564700404633, 
0.020574212074279785, -0.008829116821289062, 2.557444686817867e-10, 1759349564730400092, 
-0.01712977886199951, 0.0055580735206604, 2.359459388129256e-10, 1759349564761449960, 
-0.013435542583465576, -0.00519329309463501, 2.1839413777315237e-10, 1759349564793759633, 
-0.0010317564010620117, 0.012517988681793213, 1.825984253073858e-10, 1759349564850257757, 
0.018052518367767334, -0.01312553882598877, 0.0003303505345755089, 1759349564879126289, 
0.10902214050292969, -0.018558919429779053, -0.0004107929106701283, 1759349564910321889, 
1.6843754053115845, 0.047576844692230225, 0.061479586760625746, 1759349564940178079, 
0.4588140845298767, 0.5616634488105774, 0.15632519867454772, 1759349564970024131, 
0.9606542587280273, 0.3273642659187317, 0.255305948214664, 1759349565001507525, 
-0.07463788986206055, -0.06867921352386475, 0.3148200417484157, 1759349565032741075, 
0.9271523356437683, -0.26969224214553833, 0.4222460363140539, 1759349565069699641, 
0.44859790802001953, 0.286998987197876, 0.5540498954748999, 1759349565162103951, 
-0.1886027455329895, -0.4579436779022217, 0.6857232155228606, 1759349565189559196, 
-0.1779106855392456, -0.2135370373725891, 0.6436219807041971, 1759349565219410700, 
0.2510019540786743, 0.8310211896896362, 0.6556095804960739, 1759349565249415452, 
-0.7175458073616028, 0.40446972846984863, 0.6614392847346127, 1759349565279312944, 
0.17007720470428467, -0.7410248517990112, 0.6403029702964386, 1759349565309259921, 
-0.25924474000930786, 0.16249853372573853, 0.5863126703112131, 1759349565339213486, 
0.3416811227798462, 0.6114755868911743, 0.5562961192806473, 1759349565369477991, 
-0.032889485359191895, 0.0135880708694458, 0.5419033244516949, 1759349565401555840, 
-0.1272234320640564, -0.3731241226196289, 0.6451419426061024, 1759349565429051635, 
0.19039475917816162, 0.3543834686279297, 0.5934085649870773, 1759349565459000939, 
0.5689701437950134, 0.536361038684845, 0.5957505087612601, 1759349565488936796, 
-0.2749931812286377, -0.45890188217163086, 0.5999105763783409, 1759349565518828479, 
0.019150257110595703, 0.07422316074371338, 0.6014646819550561, 1759349565548839105, 
0.49618303775787354, 0.5159718990325928, 0.6105230689178258, 1759349565578732649, 
0.15834981203079224, -0.028343021869659424, 0.5643876616071057, 1759349565609907763, 
0.023607909679412842, -0.10547709465026855, 0.5445261166317618, 1759349565641737412, 
-0.1858319640159607, 0.29157453775405884, 0.6625340359079145, 1759349565668620287, 
0.14063596725463867, 0.24204635620117188, 0.6012397385553147, 1759349565698555626, 
-0.49959176778793335, -0.22766488790512085, 0.5923642366622933, 1759349565728448345, 
0.5375690460205078, 0.09119218587875366, 0.5781773310403958, 1759349565758377339, 
-0.07250893115997314, 0.41179192066192627, 0.5942779423211503, 1759349565788399316, 
0.3334326148033142, 0.2005375623703003, 0.6174971435119506, 1759349565818374902, 
0.05805861949920654, -0.2668319344520569, 0.5911175095169157, 1759349565849469441, 
0.05614107847213745, 0.3864096403121948, 0.5574486509691708, 1759349565881447836, 
-0.16946470737457275, 0.5156377553939819, 0.673454440969363, 1759349565908586224, 
0.2905842661857605, -0.720194935798645, 0.6204918539952609, 1759349565938343324, 
0.0915226936340332, -0.001452803611755371, 0.6110989001924702, 1759349565968264381, 
0.0021014809608459473, 1.1115796566009521, 0.5833292533754991, 1759349565998214478, 
0.04281449317932129, -0.24150264263153076, 0.553358890598533, 1759349566028195925, 
0.19414490461349487, -0.7601385116577148, 0.5470673548709742, 1759349566058401882, 
0.11458319425582886, 0.7475943565368652, 0.5968739412073868, 1759349566089514042, 
-0.3954124450683594, 0.6090573072433472, 0.6030532860763194, 1759349566119960994, 
-0.14772069454193115, -1.0464178323745728, 0.6788593626856607, 1759349566147123937, 
0.15550148487091064, 0.16884779930114746, 0.6240875147985405, 1759349566177132073, 
0.021792888641357422, 1.0172924995422363, 0.6113779688106158, 1759349566207127127, 
-0.3797156810760498, -0.31562286615371704, 0.5890842827301825, 1759349566238072319, 
-0.12212574481964111, -0.6205744743347168, 0.6133229537380863, 1759349566268039612, 
-0.2129606008529663, 0.6870390176773071, 0.5985619671161407, 1759349566298167123, 
-0.34619462490081787, 0.5562641620635986, 0.5609040900306034, 1759349566329486514, 
-0.15760302543640137, -0.594193696975708, 0.6301624798217063, 1759349566357375123, 
0.29947429895401, -0.16408294439315796, 0.6062424797727034, 1759349566387351829, 
-0.45528101921081543, 0.6788654327392578, 0.6133981036186722, 1759349566417192696, 
0.5126428604125977, 0.14633530378341675, 0.619968481526202, 1759349566446157231, 
-0.07057273387908936, -0.35048985481262207, 0.548001144201119, 1759349566477074802, 
0.2638428211212158, 0.13144677877426147, 0.5906556246446955, 1759349566507059584, 
-0.10381227731704712, 0.4406576156616211, 0.6129338429745748, 1759349566537524832, 
-0.41259121894836426, -0.11340129375457764, 0.5487173711967354, 1759349566569930824, 
-0.10149669647216797, -0.431915283203125, 0.6623874321194607, 1759349566595911370, 
0.3495447635650635, 0.4104364514350891, 0.564268109006546, 1759349566626814109, 
0.09954261779785156, 0.3911920189857483, 0.6101639611970833, 1759349566656759910, 
-0.14493203163146973, -0.43902158737182617, 0.6131814089260216, 1759349566686704807, 
0.37823808193206787, 0.11983227729797363, 0.594225696756734, 1759349566716583716, 
0.039777398109436035, 0.8076009154319763, 0.5861742693509655, 1759349566746784150, 
0.14522677659988403, -0.320259153842926, 0.6019710895713914, 1759349566777512705, 
-0.7347049713134766, -0.41702497005462646, 0.5668453011664808, 1759349566809827962, 
0.7183966636657715, 0.7484509944915771, 0.6789155604483472, 1759349566836456107, 
-0.4173615574836731, 0.25190603733062744, 0.5961389270986671, 1759349566866340011, 
0.30587172508239746, 0.05558115243911743, 0.4864461260261823, 1759349566889878638, 
-0.022349894046783447, 0.26774370670318604, 0.6615603100361682, 1759349566926293297, 
0.30974364280700684, 0.8453629016876221, 0.616347478734412, 1759349566956454325, 
0.14559924602508545, -0.6028708815574646, 0.6407139643063738, 1759349566985197671, 
0.06630825996398926, -0.27639323472976685, 0.5716251611685954, 1759349567017963888, 
0.17466312646865845, 0.6398752927780151, 0.5992880106427451, 1759349567048745164, 
-0.04806625843048096, 0.7442293763160706, 0.6457780845169598, 1759349567085933773, 
-0.45436131954193115, 0.08038753271102905, 0.6259218625140041, 1759349567114816501, 
-0.23733443021774292, -0.4912046790122986, 0.5713353360659439, 1759349567145458682, 
-0.18862706422805786, 0.3495045304298401, 0.5481196715402679, 1759349567177581735, 
-0.1358184814453125, 0.3910514712333679, 0.6022737407748896, 1759349567207775518, 
-0.35185539722442627, 0.2692610025405884, 0.6392222546162738, 1759349567245654014, 
0.4508124589920044, -0.28256481885910034, 0.608896282758028, 1759349567275604399, 
0.011320233345031738, -0.02948063611984253, 0.6188257642204377, 1759349567305776751, 
0.5856698155403137, 0.4613463282585144, 0.552126888221245, 1759349567338028212, 
0.07308036088943481, -0.17520713806152344, 0.6226415337961754, 1759349567365508607, 
0.22679173946380615, -0.18792623281478882, 0.5698062115248197, 1759349567395577511, 
-0.21604007482528687, -0.07764500379562378, 0.5858525984991676, 1759349567425399248, 
0.13439863920211792, 0.2732948660850525, 0.5928732395287246, 1759349567455274327, 
-0.4233322739601135, 0.10212153196334839, 0.6249934804205738, 1759349567485211090, 
0.0558474063873291, -0.23838120698928833, 0.6079684188201067, 1759349567515104608, 
-0.16806411743164062, 0.07598471641540527, 0.5935371504111936, 1759349567545782873, 
0.7027550935745239, 0.5765722990036011, 0.5670931900063643, 1759349567577687937, 
0.07809317111968994, -0.20333820581436157, 0.6641460427627587, 1759349567604963933, 
-0.25490182638168335, -0.5941085815429688, 0.6324539105179183, 1759349567633910582, 
0.4862409234046936, 0.4418834447860718, 0.608999499913758, 1759349567663857050, 
-0.44161224365234375, 0.6686214208602905, 0.5910930100654891, 1759349567694793059, 
-0.3892405033111572, -0.7684981822967529, 0.601883750757691, 1759349567724741881, 
0.43455082178115845, -0.29672330617904663, 0.5941700631291709, 1759349567754670200, 
0.39834433794021606, 0.9270243644714355, 0.5763455026575934, 1759349567786331837, 
-0.6206157803535461, -0.19683420658111572, 0.5782335907219235, 1759349567817779939, 
0.5141482353210449, -0.6456442475318909, 0.67178922574619, 1759349567844508613, 
0.5051020979881287, 0.6293956637382507, 0.6109235649280004, 1759349567874454072, 
0.031198740005493164, 0.5457876920700073, 0.6207966709775514, 1759349567904408387, 
-0.5865311026573181, -0.650846540927887, 0.5980511779764285, 1759349567934316775, 
0.434148907661438, -0.15676343441009521, 0.5811455248977203, 1759349567964264439, 
-0.11094200611114502, 0.6387416124343872, 0.5774771727297447, 1759349567994251360, 
0.171392560005188, 0.09763973951339722, 0.5538624852047339, 1759349568025964031, 
-0.07189035415649414, -0.5289121866226196, 0.5993369673330583, 1759349568057047383, 
0.4109782576560974, 0.08411365747451782, 0.6938825723674634, 1759349568084111827, 
0.19143050909042358, 0.6942289471626282, 0.5930426035288039, 1759349568114249525, 
0.31198829412460327, -0.2283865213394165, 0.6022615509246905, 1759349568143918671, 
0.046573638916015625, -0.27960842847824097, 0.6149583355810874, 1759349568173863308, 
0.23724395036697388, 0.5279809832572937, 0.6014700971725204, 1759349568203856622, 
0.18420469760894775, 0.3320680260658264, 0.5763091975151575, 1759349568234046247, 
-0.11751842498779297, -0.7781045436859131, 0.5486753743619273, 1759349568266069158, 
-0.01261359453201294, 0.1029508113861084, 0.5994999154368152, 1759349568295639513, 
0.5424283146858215, 0.2532994747161865, 0.6436830781956154, 1759349568333537939, 
-0.17795997858047485, 0.8012299537658691, 0.599271471021858, 1759349568363562846, 
-0.2943079471588135, -0.7046738862991333, 0.5975186194706276, 1759349568393862827, 
0.2633408308029175, -0.3578830361366272, 0.5582520820083484, 1759349568426332186, 
-0.39816027879714966, 0.9028475880622864, 0.6748912555192563, 1759349568453428300, 
-0.6964592933654785, 0.07796305418014526, 0.6145505219817904, 1759349568483285017, 
0.06590288877487183, -1.074115514755249, 0.6169792861361695, 1759349568513213721, 
0.42766451835632324, 0.41029489040374756, 0.6146147221751026, 1759349568543198759, 
-0.38872599601745605, 1.0987659692764282, 0.6157790761971813, 1759349568573084464, 
-0.050324082374572754, -0.854090690612793, 0.6264800637177986, 1759349568602119364, 
-0.23247414827346802, -0.4478788375854492, 0.5640752589412682, 1759349568633669456, 
0.2960582375526428, 1.2459619045257568, 0.5630126466312713, 1759349568665836592, 
-0.36773329973220825, -0.01845639944076538, 0.694636698035726, 1759349568691975824, 
0.26601696014404297, -0.861946702003479, 0.5909379916471345, 1759349568722860930, 
-0.10018163919448853, 0.43100666999816895, 0.6089835687377644, 1759349568752741418, 
0.27351146936416626, 0.6744537353515625, 0.5823968420365093, 1759349568782735096, 
-0.3290488123893738, -0.47193366289138794, 0.5815921616824796, 1759349568812686997, 
0.01619631052017212, -0.33505111932754517, 0.5893410747249008, 1759349568842632198, 
0.13099926710128784, 0.5002493858337402, 0.5614645307143058, 1759349568874035891, 
0.36446499824523926, 0.22207027673721313, 0.5690200998824764, 1759349568905851735, 
-0.06567966938018799, -0.49899905920028687, 0.7064371947943857, 1759349568932456522, 
0.0791580080986023, 0.15485650300979614, 0.6182092778600873, 1759349568962440513, 
0.5778104662895203, 0.432403564453125, 0.6247197720913873, 1759349568992295140, 
-0.13909965753555298, -0.4370291829109192, 0.6102579496069465, 1759349569022371570, 
-0.07736849784851074, -0.2505192160606384, 0.5788451270570744, 1759349569052366253, 
0.01752084493637085, 0.6038780212402344, 0.5601716676575006, 1759349569082166864, 
0.17557531595230103, 0.20249903202056885, 0.5702510386181516, 1759349569113917653, 
-0.5438193082809448, -0.4491816759109497, 0.5955471319437136, 1759349569143999259, 
0.30897068977355957, 0.032886385917663574, 0.6318782900787415, 1759349569171988915, 
0.05164980888366699, 0.5952312350273132, 0.6117306786149359, 1759349569200959295, 
0.40853065252304077, -0.1264556646347046, 0.5749203415282675, 1759349569231860502, 
0.06439697742462158, -0.4232516884803772, 0.6210811028453967, 1759349569261838611, 
0.076396644115448, 0.5392048358917236, 0.626060556658997, 1759349569291927786, 
-0.22620278596878052, 0.5471903085708618, 0.5869386958645507, 1759349569322161230, 
-0.14804059267044067, -1.0245720148086548, 0.5565231980570564, 1759349569353633567, 
-0.014761686325073242, -0.11037760972976685, 0.6509319560580593, 1759349569381632857, 
0.25420528650283813, 1.3802509307861328, 0.6216566768202662, 1759349569411544861, 
-0.18956416845321655, -0.43242859840393066, 0.5946361290710503, 1759349569441481714, 
-0.23693448305130005, -1.0096642971038818, 0.5941050585693773, 1759349569471462543, 
0.31572389602661133, 0.9627907872200012, 0.6063261658433209, 1759349569501410944, 
-0.45008784532546997, 0.48354488611221313, 0.5904449091843968, 1759349569531348558, 
0.35567939281463623, -0.8665748238563538, 0.6135925380133261, 1759349569561656282, 
-0.27059662342071533, 0.16572171449661255, 0.5726348722408222, 1759349569593660562, 
-0.5558844208717346, 0.6120690703392029, 0.6423417770528912, 1759349569621211604, 
-0.1836719512939453, -0.2370591163635254, 0.5703274795584402, 1759349569651114188, 
-0.015571832656860352, -0.3238293528556824, 0.5824608727576593, 1759349569681012703, 
-0.28615802526474, 0.3661627769470215, 0.5856296507100979, 1759349569710998652, 
-0.1091386079788208, 0.2708858251571655, 0.5864004472186457, 1759349569741076689, 
-0.2691412568092346, -0.24491626024246216, 0.5941014197799062, 1759349569770987601, 
0.2629006505012512, -0.06457442045211792, 0.5928712878494291, 1759349569801678505, 
-0.25546795129776, 0.32112425565719604, 0.5649235357717446, 1759349569834356763, 
0.2670910358428955, 0.24903762340545654, 0.7136506450424869, 1759349569860936697, 
-0.3192208409309387, -0.1114073395729065, 0.6016573074076933, 1759349569890844867, 
0.28469938039779663, -0.1683550477027893, 0.5695005299993415, 1759349569920735257, 
-0.09522706270217896, 0.087008535861969, 0.5879048789044686, 1759349569950672684, 
0.38357049226760864, 0.4471481442451477, 0.6141734212360738, 1759349569980477027, 
0.10749346017837524, -0.11019641160964966, 0.5964156121577224, 1759349570010497568, 
-0.029837429523468018, -0.2970595955848694, 0.5672053616848546, 1759349570041686836, 
-0.15970945358276367, 0.45350009202957153, 0.5373336825835037, 1759349570073575031, 
-0.036609768867492676, 0.0017489194869995117, 0.6429190417659224, 1759349570100347860, 
-0.014506220817565918, -0.43989479541778564, 0.6143926042464452, 1759349570130239894, 
-0.019938111305236816, 0.28304314613342285, 0.6099382030797442, 1759349570160167508, 
-0.19695943593978882, 0.5832850337028503, 0.5996478581820506, 1759349570190102809, 
0.267633318901062, -0.6818629503250122, 0.6226471549548546, 1759349570219337491, 
0.10524046421051025, -0.22431010007858276, 0.5894837445419696, 1759349570250019275, 
-0.43239182233810425, 0.8863736391067505, 0.5448175626097151, 1759349570282617246, 
-0.04505795240402222, -0.05357837677001953, 0.6064027879102197, 1759349570312517100, 
-0.24363023042678833, -0.6712771654129028, 0.6643094068546757, 1759349570339988481, 
-0.41029202938079834, 0.20304101705551147, 0.6095748005098528, 1759349570369787950, 
-0.6353597044944763, 0.7239492535591125, 0.6101047733341702, 1759349570399732962, 
0.18669122457504272, -0.4695565104484558, 0.635033371250074, 1759349570429652232, 
-0.3664591908454895, -0.128445565700531, 0.6187258535312239, 1759349570459541121, 
0.326444149017334, 0.485023558139801, 0.5914868052802597, 1759349570489694498, 
-0.25898706912994385, 0.0669020414352417, 0.5443149825750794, 1759349570521949929, 
0.15430504083633423, -0.24441426992416382, 0.6398060834212428, 1759349570549467999, 
-0.27894848585128784, 0.10472667217254639, 0.5844385254253645, 1759349570579376510, 
0.11770856380462646, 0.4485507011413574, 0.587411009142175, 1759349570609267929, 
-0.23200088739395142, -0.27858179807662964, 0.6230154254322873, 1759349570639289937, 
0.4426981806755066, -0.025304138660430908, 0.6181154975952162, 1759349570669209759, 
-0.11706298589706421, 0.29467177391052246, 0.6403420057054251, 1759349570698151446, 
-0.18352991342544556, 0.12410175800323486, 0.5690563368057138, 1759349570730572891, 
-0.30118411779403687, -0.4616847038269043, 0.5707128116699997, 1759349570761706513, 
0.38622456789016724, 0.21132349967956543, 0.6451728888160808, 1759349570789051697, 
0.24354451894760132, 0.5578675866127014, 0.6156044561340044, 1759349570818941377, 
-0.5164833664894104, -0.40208351612091064, 0.5995528426039444, 1759349570848855978, 
0.20527726411819458, -0.3064250349998474, 0.5894100190711697, 1759349570878779028, 
0.029298841953277588, 0.6902841329574585, 0.5929619718181542, 1759349570908762263, 
0.0334736704826355, 0.271956205368042, 0.5976025617798979, 1759349570938698810, 
-0.7861437797546387, -0.7477923035621643, 0.590633120232487, 1759349570969730851, 
0.5738433003425598, 0.1831425428390503, 0.5645559311464915, 1759349571001847818, 
-0.39466947317123413, 0.9494990706443787, 0.6440709555540802, 1759349571028733521, 
0.2482360601425171, -0.478137731552124, 0.5968438672004628, 1759349571058673959, 
-0.21479415893554688, -0.736230194568634, 0.6268494882070886, 1759349571088610383, 
0.4422375559806824, 1.0721231698989868, 0.6074655169341862, 1759349571118577384, 
0.32062023878097534, 0.178300142288208, 0.5925304224822106, 1759349571148513839, 
-0.2444213628768921, -0.9292944669723511, 0.5745054341244041, 1759349571178794531, 
-0.11639958620071411, 0.5064902901649475, 0.60084419569401, 1759349571209127581, 
0.1490088701248169, 0.7313017845153809, 0.5938534352993097, 1759349571241244667, 
-0.12918591499328613, -0.7067685723304749, 0.6836200566792665, 1759349571268463460, 
-0.22995859384536743, -0.2328994870185852, 0.608100321577187, 1759349571298462813, 
0.19823777675628662, 0.6254892349243164, 0.5968332734551526, 1759349571328369459, 
0.10843348503112793, 0.15600037574768066, 0.5847235493666624, 1759349571358343013, 
0.1965271234512329, -0.3880067467689514, 0.5901861353652158, 1759349571388366642, 
-0.5472732782363892, 0.08267199993133545, 0.6027348462575686, 1759349571418340899, 
0.006746053695678711, 0.546194851398468, 0.5640992732368919, 1759349571449771011, 
-0.1553860902786255, -0.047535717487335205, 0.615383573659742, 1759349571477697541, 
-0.004727780818939209, -0.17952203750610352, 0.5792598335289318, 1759349571508293900, 
-0.46400779485702515, 0.36958903074264526, 0.5975888530570899, 1759349571537552013, 
0.09312725067138672, 0.15709543228149414, 0.5891069864118278, 1759349571567580570, 
-0.27092695236206055, -0.27113544940948486, 0.6157740306058208, 1759349571597443803, 
0.09001415967941284, 0.1475379467010498, 0.597421428009431, 1759349571627428025, 
-0.28339821100234985, 0.2613801956176758, 0.5871438046819295, 1759349571657848309, 
-0.09864413738250732, -0.12330394983291626, 0.5600241110360908, 1759349571690275964, 
-0.722503662109375, -0.27540653944015503, 0.6364271051139224, 1759349571727223753, 
0.5301533937454224, -0.4075923562049866, 0.6106070439616306, 1759349571757254780, 
-0.11671537160873413, 0.7544928193092346, 0.648202329440208, 1759349571786138722, 
-0.05777007341384888, 0.28920257091522217, 0.5867366310236483, 1759349571818241745, 
-0.36434537172317505, -1.0084196329116821, 0.5769954600567516, 1759349571849996237, 
0.05708104372024536, -0.6727209687232971, 0.6148100211472313, 1759349571886919079, 
-0.11322677135467529, 0.3733401298522949, 0.5666920370115636, 1759349571916818967, 
-0.4142833948135376, 0.486760675907135, 0.6060401773106796, 1759349571946842011, 
-0.1720619797706604, -0.5240515470504761, 0.5735511721685517, 1759349571977951684, 
-0.22472888231277466, -0.0737108588218689, 0.5552917706145325, 1759349572010345502, 
0.15833288431167603, -0.06916719675064087, 0.6572947505530391, 1759349572046612357, 
-0.09128814935684204, 0.708592414855957, 0.5930166602389519, 1759349572076518675, 
-0.462546169757843, -0.01891261339187622, 0.6057269062237208, 1759349572106512984, 
0.4825431704521179, -0.34288060665130615, 0.6023500498451391, 1759349572138268077, 
-0.20149409770965576, 0.4223406910896301, 0.5944861634327522, 1759349572169395228, 
0.3453146815299988, 0.1665337085723877, 0.6646313341268929, 1759349572196420352, 
-0.23226934671401978, -0.23544901609420776, 0.5901886079154944, 1759349572226385491, 
-0.02119392156600952, 0.03843504190444946, 0.5776180898913714, 1759349572256334610, 
0.1002243161201477, 0.1579328179359436, 0.5779588479804805, 1759349572286276626, 
-0.3398304581642151, 0.3120113015174866, 0.5992314011214633, 1759349572316348171, 
-0.2361019253730774, -0.03030627965927124, 0.6181321277964071, 1759349572345218071, 
-0.2721783518791199, 0.08223235607147217, 0.5515435650753375, 1759349572376872645, 
-0.1739768385887146, 0.18677574396133423, 0.550605481267055, 1759349572408022027, 
0.017994344234466553, -0.05521923303604126, 0.6571660899964845, 1759349572435868980, 
-0.17324572801589966, -0.1502152681350708, 0.6246426229654948, 1759349572465831188, 
-0.5637637376785278, 0.47332268953323364, 0.5645684690915751, 1759349572487722087, 
0.032356977462768555, 0.5345563292503357, 0.6377315933239341, 1759349572525745419, 
-0.6280994415283203, -0.10004663467407227, 0.5871245500438662, 1759349572555654106, 
0.4397353529930115, -0.35202300548553467, 0.5829666304297684, 1759349572586427433, 
-0.21865582466125488, 0.35753732919692993, 0.6005053715998818, 1759349572618195587, 
-0.9472395777702332, 0.6152195930480957, 0.6770425130040858, 1759349572645550489, 
-0.10691571235656738, -0.6468957662582397, 0.6077925855436136, 1759349572675440268, 
0.16411280632019043, -0.35950392484664917, 0.6064341829351295, 1759349572705383651, 
-0.0011544227600097656, 0.9600251913070679, 0.5884334504987022, 1759349572735300077, 
-0.5321471691131592, -0.0036122798919677734, 0.5650246683333323, 1759349572765263916, 
-0.2622179388999939, -0.962651252746582, 0.5979679360260918, 1759349572795209539, 
0.0969395637512207, 0.9130964279174805, 0.6135627685231806, 1759349572824960835, 
-0.13518643379211426, 0.8310920000076294, 0.5246991566770882, 1759349572858444202, 
0.252221941947937, -0.948090136051178, 0.6699049448861835, 1759349572885082225, 
-0.19906777143478394, 0.040036678314208984, 0.5904279209957118, 1759349572915021243, 
0.26182109117507935, 0.8233884572982788, 0.5725918754322201, 1759349572944926497, 
-0.19908934831619263, -0.16908180713653564, 0.595014414382387, 1759349572974846036, 
-0.16048336029052734, -0.35803353786468506, 0.6197308723679068, 1759349573005076445, 
0.004504263401031494, 0.10733044147491455, 0.647265008392861, 1759349573034760513, 
0.7918328642845154, 0.29410701990127563, 0.5841826334601021, 1759349573066313123, 
-0.19417572021484375, -0.06634581089019775, 0.5447996611013707, 1759349573098315773, 
0.2780698537826538, -0.24779397249221802, 0.6360979698791497, 1759349573134537391, 
-0.1804160475730896, 0.1227002739906311, 0.5865863261139123, 1759349573164537721, 
-0.21621304750442505, 0.5098243355751038, 0.5924401658759504, 1759349573194978608, 
-0.15320706367492676, -0.1355295181274414, 0.558668091038396, 1759349573227008619, 
-0.09191828966140747, -0.38323044776916504, 0.5863245266994592, 1759349573257099001, 
0.07985025644302368, 0.28675925731658936, 0.6807620888788759, 1759349573284323738, 
-0.33182424306869507, 0.4398285150527954, 0.6255412964158877, 1759349573314225485, 
0.14240038394927979, -0.3492400646209717, 0.627309243200423, 1759349573342146644, 
-0.14693963527679443, -0.08429384231567383, 0.5474271531332419, 1759349573374054085, 
-0.5118601322174072, 0.8294690251350403, 0.5955400311049821, 1759349573404066697, 
-0.17377912998199463, -0.02007436752319336, 0.5958229595109392, 1759349573434060612, 
-0.2428920865058899, -0.6932576298713684, 0.5795965720166213, 1759349573466087349, 
0.034516870975494385, 0.48723655939102173, 0.6463524378735459, 1759349573494066992, 
-0.17537027597427368, 0.9044768214225769, 0.6035303033729815, 1759349573523838619, 
-0.4565510153770447, -0.7498375773429871, 0.6297918581604185, 1759349573553764781, 
-0.04826939105987549, -0.307136595249176, 0.6108739353394318, 1759349573583725833, 
-0.11079007387161255, 1.1762961149215698, 0.5931692767881127, 1759349573613633566, 
0.39281654357910156, -0.13707584142684937, 0.5995840397850852, 1759349573643659941, 
-0.32639509439468384, -0.677449643611908, 0.5748211947126594, 1759349573674568393, 
0.4466775059700012, 0.5337805151939392, 0.5667255323652691, 1759349573706271499, 
0.20624244213104248, 0.6602077484130859, 0.6684730978785872, 1759349573733547467, 
-0.467800498008728, -0.5276574492454529, 0.578576004046247, 1759349573763438386, 
-0.31680744886398315, -0.2961001396179199, 0.5640177147663462, 1759349573793313044, 
0.6749328374862671, 0.6701701283454895, 0.5884111357724515, 1759349573823322893, 
-0.01752108335494995, 0.06766897439956665, 0.6429349671923023, 1759349573852182852, 
-0.321239173412323, -0.21537774801254272, 0.6289567941855447, 1759349573882191564, 
0.5443891882896423, 0.26478612422943115, 0.5808347903339647, 1759349573913892838, 
0.07964682579040527, 0.46629470586776733, 0.5512910869410862, 1759349573946092611, 
0.00010335445404052734, -0.08124691247940063, 0.6567908226404413, 1759349573973033047, 
-0.3836836814880371, -0.1412978172302246, 0.5860426329787369, 1759349574002941977, 
-0.11308795213699341, 0.4895208477973938, 0.5928826001694758, 1759349574032880907, 
-0.289451539516449, 0.322033166885376, 0.5990691883638719, 1759349574062852213, 
0.19665849208831787, -0.3644483685493469, 0.6059895351699414, 1759349574092747062, 
-0.24060577154159546, 0.09743928909301758, 0.6326244721864366, 1759349574122732048, 
0.3229166269302368, 0.6644256114959717, 0.6048875005394024, 1759349574153900596, 
0.36245763301849365, -0.3497958779335022, 0.5533098186477758, 1759349574185604984, 
0.07159864902496338, -0.2527664303779602, 0.613077877767114, 1759349574212650893, 
0.08405649662017822, 0.8178443312644958, 0.581701454945867, 1759349574242527544, 
-0.06106942892074585, 0.24379795789718628, 0.5826473907744001, 1759349574272412041, 
-0.03492748737335205, -0.7055349946022034, 0.5869085048556941, 1759349574302362119, 
-0.007050633430480957, 0.15071040391921997, 0.5922062156624655, 1759349574332325185, 
-0.11141949892044067, 0.9599273204803467, 0.5862696384341544, 1759349574362269673, 
-0.3347926139831543, -0.41017335653305054, 0.5996931629846922, 1759349574392903267, 
0.43645036220550537, -0.6718195080757141, 0.6478052942351699, 1759349574422194520, 
-0.4604834318161011, 0.8511566519737244, 0.6233456387500322, 1759349574451131443, 
0.03407549858093262, 0.3798788785934448, 0.5784056296472151, 1759349574482020333, 
-0.1608797311782837, -0.8848917484283447, 0.6072095256567402, 1759349574511993897, 
-0.06379520893096924, 0.4332679510116577, 0.6046203705752201, 1759349574542069652, 
-0.38959765434265137, 1.0252019166946411, 0.5937282864548304, 1759349574571940191, 
-0.11859279870986938, -0.5865102410316467, 0.580983170666539, 1759349574602094574, 
-0.2493017315864563, -0.2349289059638977, 0.5289724820572453, 1759349574634608997, 
-0.12067294120788574, 0.8673709630966187, 0.6498668868818358, 1759349574661752218, 
-0.15185976028442383, 0.08219993114471436, 0.6275463196671222, 1759349574691693075, 
-0.16051524877548218, -0.47652238607406616, 0.6410948527537409, 1759349574721644234, 
0.032992660999298096, 0.4085928797721863, 0.6186303326407852, 1759349574751631763, 
0.4545780420303345, 0.4294792413711548, 0.6019557233268402, 1759349574781541732, 
-0.10694563388824463, 0.47095680236816406, 0.5877095192384457, 1759349574811743465, 
0.14206057786941528, -0.28186190128326416, 0.5892419635729828, 1759349574841917100, 
-0.2009948492050171, -0.05308520793914795, 0.5647708707318462, 1759349574874107755, 
0.3602138161659241, 0.5774731636047363, 0.6389554869151673, 1759349574901439814, 
0.2249031662940979, 0.05067068338394165, 0.5700394084478767, 1759349574931227326, 
-0.027267396450042725, -0.2314777970314026, 0.6145122734301527, 1759349574960134968, 
-0.11480796337127686, 0.34106844663619995, 0.6377928059933353, 1759349574990117474, 
0.32857948541641235, 0.2918659448623657, 0.6130737437508417, 1759349575021041913, 
0.2426295280456543, -0.04668647050857544, 0.5924113952318065, 1759349575051011712, 
-0.047643423080444336, -0.17283284664154053, 0.5496908459346992, 1759349575082334877, 
-0.10230320692062378, 0.26700901985168457, 0.5692235250708803, 1759349575114058284, 
-0.3050304055213928, 0.5821429491043091, 0.674941262451622, 1759349575140812860, 
-0.08755403757095337, -0.5820890665054321, 0.5927291124041361, 1759349575170793755, 
-0.37203139066696167, -0.08129572868347168, 0.5996051412873318, 1759349575200723466, 
0.08697080612182617, 1.0280094146728516, 0.5944783466029567, 1759349575230653435, 
-0.028499126434326172, -0.2204572558403015, 0.6061164348545172, 1759349575260591053, 
-0.055870234966278076, -0.6126279830932617, 0.6107896493573582, 1759349575290571652, 
-0.18583673238754272, 0.9256477355957031, 0.5635614904736967, 1759349575322444108, 
-0.19553232192993164, 0.5302872061729431, 0.5923841642382262, 1759349575352962717, 
-0.27382755279541016, -0.80755215883255, 0.6749837803307449, 1759349575380328452, 
-0.2459183931350708, 0.03217744827270508, 0.6114061768738033, 1759349575410313726, 
-0.31043481826782227, 0.8740447163581848, 0.5993466026562944, 1759349575440272617, 
0.0625196099281311, -0.23872864246368408, 0.582114236226338, 1759349575470181570, 
-0.2283521294593811, -0.3523470163345337, 0.5807101391337673, 1759349575500226413, 
0.46849846839904785, 0.41606563329696655, 0.6027573248611203, 1759349575530659922, 
0.055604517459869385, 0.3884139657020569, 0.5858952709658405, 1759349575562283794, 
0.019903242588043213, -0.3164519667625427, 0.5975577313250523, 1759349575592001990, 
-0.17263782024383545, -0.46772801876068115, 0.6262828842469432, 1759349575629881495, 
0.1603412628173828, 0.30705422163009644, 0.5941562111851213, 1759349575659835190, 
0.15094488859176636, 0.5653142929077148, 0.5872706221476083, 1759349575690031263, 
0.4142953157424927, -0.158383309841156, 0.5357066032791614, 1759349575722364830, 
-0.1742745041847229, -0.13215816020965576, 0.636887013253417, 1759349575749800737, 
-0.08797407150268555, -0.09694302082061768, 0.6023236052274697, 1759349575789638468, 
-0.3267078995704651, 0.5363703370094299, 0.6203032779387128, 1759349575819771340, 
0.11388349533081055, 0.05589371919631958, 0.5968048506675421, 1759349575850414191, 
-0.2897930145263672, -0.596077561378479, 0.5699981804380532, 1759349575882193829, 
0.4695855975151062, 0.46168649196624756, 0.6598123244769325, 1759349575909461434, 
0.14437377452850342, 0.7696691751480103, 0.6211764316007862, 1759349575938315040, 
-0.47955942153930664, -0.5947821140289307, 0.5721709539746986, 1759349575969211280, 
0.39101511240005493, -0.34300553798675537, 0.5799780260213695, 1759349575999242137, 
-0.039921700954437256, 0.9946224093437195, 0.6097740657135414, 1759349576028142049, 
-0.5959656238555908, 0.128340482711792, 0.5782407642733965, 1759349576059079367, 
-0.06725609302520752, -0.805304229259491, 0.5898640702630916, 1759349576090056910, 
0.422484815120697, 0.4550645351409912, 0.5996137247365334, 1759349576122210906, 
-0.3410521149635315, 0.7967233657836914, 0.6992461404049146, 1759349576149032401, 
0.0550379753112793, -0.45379090309143066, 0.5878577932045909, 1759349576178930170, 
-0.12829512357711792, -0.18138855695724487, 0.5995084495601659, 1759349576208944588, 
0.3803142309188843, 0.7339070439338684, 0.621051191331566, 1759349576238930835, 
-0.28871774673461914, 0.2719854712486267, 0.610265421650928, 1759349576268927549, 
0.31651628017425537, -0.5716345906257629, 0.591898053990317, 1759349576299013543, 
-0.1494341492652893, 0.0616421103477478, 0.5475137641047536, 1759349576330342440, 
0.41142433881759644, 0.7280088067054749, 0.5575099082923827, 1759349576361510097, 
-0.13571864366531372, -0.2620845437049866, 0.6876809934434845, 1759349576388698309, 
-0.1853656768798828, -0.17503070831298828, 0.619284065368089, 1759349576418654817, 
0.5305060148239136, 0.4296249747276306, 0.58818776263474, 1759349576448705865, 
0.31030863523483276, 0.16672790050506592, 0.5663021022575547, 1759349576478653973, 
-0.17174208164215088, -0.302668035030365, 0.5713250637658742, 1759349576508698008, 
0.20433014631271362, 0.33227312564849854, 0.5776266041519252, 1759349576538664534, 
0.4725561738014221, 0.5413922071456909, 0.5438907953139844, 1759349576570333671, 
-0.054504573345184326, -0.2886205315589905, 0.593547576333135, 1759349576600226199, 
0.16336357593536377, -0.10384958982467651, 0.6479916469190328, 1759349576628701245, 
-0.4177173972129822, 0.49158644676208496, 0.6252036645846449, 1759349576658548746, 
-0.29301780462265015, 0.26710909605026245, 0.6148495318898258, 1759349576688580510, 
-0.5130124092102051, -0.550548791885376, 0.6317145023348181, 1759349576718524531, 
0.7590430974960327, 0.075469970703125, 0.6376898631778556, 1759349576747821928, 
0.10300034284591675, 0.7580934762954712, 0.5777599154220849, 1759349576778376902, 
0.17212939262390137, -0.06928461790084839, 0.5573865667107327, 1759349576810437801, 
-0.2945566773414612, -0.6290138959884644, 0.6612920187858707, 1759349576837686699, 
0.030227363109588623, 0.7500595450401306, 0.6004050282046183, 1759349576867676164, 
-0.13415223360061646, 0.6656370162963867, 0.609390733894695, 1759349576897505926, 
0.06460410356521606, -0.9994922280311584, 0.5988636001897343, 1759349576927480103, 
-0.17406713962554932, -0.0035144686698913574, 0.6111602748856576, 1759349576957386836, 
0.18954086303710938, 1.13749361038208, 0.656006047760033, 1759349576986409689, 
-0.2699832320213318, -0.11596441268920898, 0.5726841836409006, 1759349577018092161, 
0.004630625247955322, -0.7869033813476562, 0.5510677285206487, 1759349577050337302, 
0.3928372859954834, 0.4648560881614685, 0.6893479337271916, 1759349577077185912, 
-0.5197600722312927, 0.7343339323997498, 0.5838076776278934, 1759349577107174079, 
0.19933152198791504, -0.42772376537323, 0.6028531360217613, 1759349577136130384, 
0.07388043403625488, -0.1468488574028015, 0.590166620252725, 1759349577167061173, 
-0.5687610507011414, 0.406984806060791, 0.5830339911554147, 1759349577196945112, 
-0.36268675327301025, 0.0901440978050232, 0.5536715854593188, 1759349577226998232, 
0.07270652055740356, -0.18536120653152466, 0.5463094892811884, 1759349577258923446, 
-0.5070005655288696, 0.271162211894989, 0.5784821391708828, 1759349577290038482, 
-0.09661412239074707, -0.02637016773223877, 0.6908596922523381, 1759349577326905079, 
-0.022425532341003418, 0.04009920358657837, 0.6101620174803308, 1759349577356694106, 
-0.19638341665267944, 0.2656448483467102, 0.5632433719983283, 1759349577386866571, 
-0.16000717878341675, -0.17222154140472412, 0.5393550586483233, 1759349577418114781, 
0.24925339221954346, 0.0040018558502197266, 0.5745003194336117, 1759349577449076984, 
0.23321831226348877, 0.28545117378234863, 0.6347753411198056, 1759349577486447038, 
0.11045843362808228, 0.4354035258293152, 0.6376382037313567, 1759349577515349805, 
-0.5250075459480286, -0.4836958050727844, 0.6034245098407384, 1759349577546323672, 
0.02870047092437744, -0.11845839023590088, 0.5811085542507274, 1759349577578886727, 
0.7701413631439209, 0.593978762626648, 0.6450074472029883, 1759349577608257004, 
0.03561371564865112, 0.973260223865509, 0.6275909553120863, 1759349577645197179, 
0.21930569410324097, -0.10982656478881836, 0.5596152909357406, 1759349577676051612, 
-0.3434334993362427, -0.7854405641555786, 0.5792507390151701, 1759349577706624315, 
0.3001708984375, 0.6298744678497314, 0.5661263813792118, 1759349577738199305, 
-0.12492454051971436, 0.6009773015975952, 0.643706732991956, 1759349577765959294, 
-0.6322977542877197, -1.0807340145111084, 0.5927954846492631, 1759349577795833459, 
0.5692853331565857, 0.2969478964805603, 0.6172113327166253, 1759349577825759705, 
-0.15033584833145142, 0.8368555903434753, 0.621257961270362, 1759349577855734056, 
0.13881200551986694, -0.44464606046676636, 0.6168297549416905, 1759349577885678093, 
-0.0018832683563232422, -0.3336203098297119, 0.6115415719814532, 1759349577915585782, 
-0.35923177003860474, 0.3745056986808777, 0.5830243135373459, 1759349577946358863, 
-0.16093862056732178, 0.4929502606391907, 0.5380498284960304, 1759349577978359785, 
0.06371438503265381, -0.3761662244796753, 0.6727649744662283, 1759349578004480211, 
-0.21574896574020386, -0.04135042428970337, 0.5839668626860497, 1759349578035389260, 
-0.3562629222869873, 0.4277764558792114, 0.5945112784048708, 1759349578065308316, 
-0.21089476346969604, -0.06949347257614136, 0.593019516984463, 1759349578095255806, 
0.05983853340148926, -0.2811397910118103, 0.5988948637380486, 1759349578125239621, 
0.01656973361968994, 0.35289663076400757, 0.6354588823348853, 1759349578154156697, 
0.5727233290672302, 0.3301960825920105, 0.5725141692195941, 1759349578186409550, 
-0.03803861141204834, -0.3455648422241211, 0.5468569182188019, 1759349578218663640, 
0.13236606121063232, -0.06251329183578491, 0.6472319695571145, 1759349578244999917, 
0.21415948867797852, 0.475381076335907, 0.5875935492437647, 1759349578274944048, 
-0.4649796485900879, -0.06822878122329712, 0.5981380793143465, 1759349578304858554, 
-0.29577863216400146, -0.47257518768310547, 0.5878166711298598, 1759349578334793011, 
0.7399324178695679, 0.49061089754104614, 0.599689397352905, 1759349578364789713, 
0.1880284547805786, 0.5034542083740234, 0.6186305213917596, 1759349578394692879, 
-0.19983404874801636, -0.7088621854782104, 0.579115859774981, 1759349578426321876, 
0.3837859034538269, -0.2278100848197937, 0.6255189963067246, 1759349578456723696, 
0.5227550268173218, 1.0556225776672363, 0.657573925073487, 1759349578484556576, 
-0.2626768946647644, -0.021707117557525635, 0.5944986679540968, 1759349578514502303, 
-0.23224985599517822, -0.9770839214324951, 0.6299082593734018, 1759349578543438493, 
0.20363205671310425, 0.5315299034118652, 0.5931944218236098, 1759349578574343910, 
-0.17089253664016724, 0.8820047974586487, 0.602047845973661, 1759349578604345982, 
-0.10609930753707886, -0.9541018605232239, 0.5897785351028234, 1759349578634303974, 
-0.24277085065841675, -0.23578399419784546, 0.5377525604047612, 1759349578666786366, 
0.7417011260986328, 1.0130541324615479, 0.658649330902315, 1759349578694203272, 
0.14449477195739746, -0.1513414978981018, 0.5924078132554144, 1759349578724092459, 
-0.06249731779098511, -0.7397760152816772, 0.5927348924684778, 1759349578754016092, 
0.12277376651763916, 0.5469972491264343, 0.6178345989505519, 1759349578783973346, 
0.2640780210494995, 0.6595295071601868, 0.5978383616852067, 1759349578813867035, 
0.08646076917648315, -0.5785034894943237, 0.5789524020467163, 1759349578843868077, 
-0.05816781520843506, -0.22360026836395264, 0.5949390321992722, 1759349578874550461, 
-0.00732344388961792, 0.46654564142227173, 0.5682245598049226, 1759349578906565174, 
-0.4615292549133301, 0.23014259338378906, 0.6483203404447232, 1759349578933746856, 
0.2227681279182434, -0.5244137048721313, 0.637033610581835, 1759349578963674458, 
-0.41875940561294556, 0.16388332843780518, 0.6280687097902861, 1759349578993598790, 
0.26549047231674194, 0.4479129910469055, 0.6000143852771174, 1759349579023548962, 
-0.08374917507171631, -0.09985232353210449, 0.5804442752878753, 1759349579053433196, 
-0.08906406164169312, -0.2455088496208191, 0.5733167048578384, 1759349579083666519, 
-0.11540991067886353, 0.31914597749710083, 0.5835143926601306, 1759349579114580817, 
-0.22131234407424927, 0.2767033576965332, 0.5764148610183373, 1759349579146612020, 
-0.28957414627075195, -0.47901952266693115, 0.6539069774108307, 1759349579173308764, 
-0.1247105598449707, -0.08820348978042603, 0.5737207810874455, 1759349579203309816, 
-0.2815975546836853, 0.9092097878456116, 0.624589154049446, 1759349579233116324, 
0.09792685508728027, -0.278566837310791, 0.6319378125370283, 1759349579263059567, 
-0.2872268557548523, -0.7846296429634094, 0.6238481813236474, 1759349579292981543, 
0.8436527252197266, 0.5918234586715698, 0.610495304846809, 1759349579323063463, 
0.053694188594818115, 0.7223105430603027, 0.5632603267893388, 1759349579354474105, 
-0.2533085346221924, -1.0137735605239868, 0.5682258083871281, 1759349579385356716, 
0.3973081707954407, -0.21033746004104614, 0.6594858571882836, 1759349579412935527, 
-0.3427731990814209, 1.192220687866211, 0.6143119218963263, 1759349579442755509, 
-0.5172861814498901, -0.5351672172546387, 0.5938371075177206, 1759349579472680007, 
0.4062182903289795, -0.6735305786132812, 0.5848692041183111, 1759349579502664364, 
0.3017324209213257, 0.8091537356376648, 0.6135112567741732, 1759349579532633559, 
-0.3353431224822998, 0.4001377820968628, 0.6257855035131163, 1759349579562652037, 
0.20711594820022583, -0.856080174446106, 0.5684483601318991, 1759349579594462959, 
0.0046215057373046875, 0.14620119333267212, 0.5775256251254267, 1759349579624455166, 
0.08344382047653198, 0.14913064241409302, 0.6226912102808017, 1759349579662459981, 
-0.3919350504875183, 0.7986330986022949, 0.609264827048133, 1759349579692324211, 
-0.06373715400695801, -0.38728439807891846, 0.5989506863161242, 1759349579722346353, 
-0.39533084630966187, -0.3889891505241394, 0.5430745062296036, 1759349579754563186, 
0.19521015882492065, 0.48941588401794434, 0.6377447237491471, 1759349579782194417, 
-0.3230300545692444, 0.45906519889831543, 0.6149772917176763, 1759349579812289241, 
-0.5473726987838745, -0.37904155254364014, 0.6294507661949089, 1759349579842055307, 
0.3756903409957886, -0.3255825638771057, 0.6275486328026599, 1759349579871150597, 
0.3406065106391907, 0.34801214933395386, 0.5678853676193917, 1759349579901965908, 
-0.362623393535614, 0.320422887802124, 0.5681619441901753, 1759349579931834440, 
0.2896636724472046, -0.27386629581451416, 0.5827430086333597, 1759349579962499873, 
0.06286025047302246, -0.15020114183425903, 0.5706032595323681, 1759349579994195462, 
0.338115930557251, 0.45197224617004395, 0.638933345614887, 1759349580021765419, 
0.022694051265716553, 0.24492430686950684, 0.5815422602304773, 1759349580051639349, 
0.3091801404953003, -0.6972463726997375, 0.5954904409038845, 1759349580081506563, 
-0.4406334161758423, 0.1603197455406189, 0.6122925137874413, 1759349580111494175, 
0.7264570593833923, 0.8757716417312622, 0.6116663159746134, 1759349580141586866, 
-0.3046516180038452, -0.5399572849273682, 0.6274788202517032, 1759349580171376955, 
0.12760627269744873, -0.4785168766975403, 0.5682485753724622, 1759349580202613876, 
0.5115653872489929, 0.8472399711608887, 0.5413093739186681, 1759349580234475024, 
0.1795007586479187, 0.2243472933769226, 0.6824430772374753, 1759349580261260193, 
-0.3701431155204773, -0.7671800255775452, 0.6126669357333172, 1759349580291208729, 
0.3960821032524109, 0.21508818864822388, 0.6116951757052921, 1759349580321069584, 
0.546333372592926, 0.5511640906333923, 0.6210087595939168, 1759349580351027940, 
-0.616468071937561, -0.06709271669387817, 0.5945336195782022, 1759349580380987847, 
0.09152650833129883, -0.19487953186035156, 0.6115041141134292, 1759349580410967152, 
-0.47478049993515015, 0.3075893521308899, 0.5772748227123478, 1759349580442289285, 
0.14062261581420898, 0.3214259743690491, 0.5516254070878576, 1759349580474076008, 
-0.12982690334320068, -0.28041940927505493, 0.6531794765754092, 1759349580500859973, 
-0.033956706523895264, -0.04097878932952881, 0.5834632603663185, 1759349580530773055, 
0.021978259086608887, 0.04001796245574951, 0.5063801384644456, 1759349580553435229, 
0.4336663484573364, 0.07026016712188721, 0.6288109309259364, 1759349580590590968, 
5.632638931274414e-05, 0.05520516633987427, 0.5781862366140911, 1759349580620798360, 
-0.09550708532333374, 0.15672701597213745, 0.5978231436351793, 1759349580650612032, 
-0.37855803966522217, -0.14345258474349976, 0.5949672877511487, 1759349580682230259, 
0.22259581089019775, -0.09583085775375366, 0.6217623277943318, 1759349580712336922, 
0.04084432125091553, 0.21794754266738892, 0.6476968503808568, 1759349580740297090, 
0.2902836799621582, 0.18485260009765625, 0.6045131369344655, 1759349580770343735, 
-0.4136652946472168, -0.08348590135574341, 0.6053832826275144, 1759349580800225265, 
-0.3294423222541809, -0.4436954855918884, 0.6140156828392794, 1759349580829131481, 
0.33103758096694946, 0.3370722532272339, 0.5648184278821011, 1759349580860107608, 
-0.4642726182937622, 0.6351069808006287, 0.5716505931287406, 1759349580890178066, 
0.08376860618591309, -0.6483809947967529, 0.5702549483187542, 1759349580922417399, 
-0.2515285015106201, -0.33300715684890747, 0.6984105229713498, 1759349580950051169, 
-0.36069005727767944, 0.8721520304679871, 0.6233756502621645, 1759349580979870713, 
-0.48347020149230957, 0.17421013116836548, 0.606147161719793, 1759349581009798369, 
-0.12491953372955322, -0.9676656126976013, 0.6050845410384728, 1759349581039771841, 
0.04311025142669678, 0.3824152946472168, 0.5943517308005447, 1759349581069681576, 
-0.46219563484191895, 0.8851375579833984, 0.5956649322659421, 1759349581099692429, 
-0.39341169595718384, -0.9549153447151184, 0.5917644294193074, 1759349581130231205, 
-0.0526394248008728, -0.09696567058563232, 0.5431966947814634, 1759349581162665678, 
0.16108006238937378, 0.7321270108222961, 0.6748178283973374, 1759349581189636622, 
0.36708420515060425, -0.014453113079071045, 0.6261684632187625, 1759349581219396801, 
-0.21410459280014038, -0.5054305791854858, 0.6098289622147409, 1759349581249431337, 
0.17542922496795654, 0.1970570683479309, 0.6162811597857222, 1759349581279289705, 
0.22285640239715576, 0.7031654119491577, 0.5882450639516885, 1759349581309193743, 
-0.3181694746017456, -0.49846959114074707, 0.5728929921451714, 1759349581339242280, 
-0.06780493259429932, -0.4419096112251282, 0.570439463442914, 1759349581370574826, 
0.592960774898529, 0.5019152164459229, 0.5636696618858732, 1759349581402274100, 
-0.0932500958442688, 0.19799208641052246, 0.6576780630605443, 1759349581429249027, 
0.15573745965957642, -0.4022366404533386, 0.6068058776466108, 1759349581458126577, 
0.32863157987594604, 0.011593461036682129, 0.5689711700271893, 1759349581489076230, 
-0.2491803765296936, 0.5096369981765747, 0.6013206964127498, 1759349581519038908, 
-0.0208204984664917, -0.02689683437347412, 0.6166773090296511, 1759349581548187248, 
-0.037970006465911865, -0.22077590227127075, 0.5674322278450398, 1759349581578998586, 
0.05889767408370972, 0.17402654886245728, 0.5736044805603339, 1759349581611006831, 
-0.2320181131362915, 0.2845246195793152, 0.6158977196639074, 1759349581641401901, 
0.14998912811279297, -0.29710322618484497, 0.6515345676833962, 1759349581668959902, 
-0.32068932056427, -0.22030651569366455, 0.5949253043734012, 1759349581698930532, 
0.22958415746688843, 0.6730873584747314, 0.5861786449533731, 1759349581728931225, 
0.09768646955490112, -0.08432745933532715, 0.5873957862123261, 1759349581758887486, 
-0.14246588945388794, -0.6104518175125122, 0.6397995284917692, 1759349581788949940, 
0.0937044620513916, 0.6782649159431458, 0.6332304693804758, 1759349581818879310, 
0.3075541853904724, 0.5253234505653381, 0.5794136004514813, 1759349581850325246, 
-0.2061384916305542, -0.8798455595970154, 0.6369293355991951, 1759349581878264619, 
-0.01557612419128418, 0.10293549299240112, 0.5810159587611263, 1759349581908822025, 
-0.12323343753814697, 0.9717559814453125, 0.602648254847384, 1759349581938116528, 
-0.5053788423538208, -0.7374219298362732, 0.6025779364713565, 1759349581968005334, 
0.3140999674797058, -0.4091472029685974, 0.605164731757081, 1759349581997955825, 
-0.4998968243598938, 0.920197606086731, 0.5904519767196557, 1759349582027955258, 
0.21788549423217773, 0.11471790075302124, 0.6018589193760255, 1759349582058760204, 
-0.29528117179870605, -0.6474739909172058, 0.5803503117515115, 1759349582090504282, 
0.010907411575317383, -0.38703376054763794, 0.6469454315793798, 1759349582127758807, 
0.7093306183815002, 0.11170065402984619, 0.5994919037134483, 1759349582157705161, 
-0.03384155035018921, 0.46123719215393066, 0.5798030929838839, 1759349582187772411, 
-0.19998997449874878, -0.33413487672805786, 0.5711895488945055, 1759349582218394251, 
0.17419695854187012, -0.33533012866973877, 0.5446957566909277, 1759349582250734646, 
-0.02761828899383545, -0.18365609645843506, 0.6689714178632467, 1759349582277751767, 
0.04565972089767456, 0.5419573783874512, 0.6257659828808854, 1759349582307650472, 
-0.9231185913085938, -0.0391499400138855, 0.6228103325668221, 1759349582337368907, 
0.24977535009384155, -0.4172460436820984, 0.5756538820426449, 1759349582367379453, 
-0.38435930013656616, 0.09830772876739502, 0.5610048876900837, 1759349582397209246, 
0.10556924343109131, 0.42160719633102417, 0.6048493936157452, 1759349582427273188, 
0.003780364990234375, -0.23839038610458374, 0.6121220738237493, 1759349582458407282, 
-0.4846121668815613, -0.1330496072769165, 0.5927169826457948, 1759349582489788239, 
-0.3645121455192566, 0.6234457492828369, 0.6554001607385999, 1759349582517033422, 
0.06511259078979492, 0.09984564781188965, 0.5997100980041669, 1759349582546947105, 
-0.1398991346359253, 0.17385858297348022, 0.5173637683175706, 1759349582570532528, 
-0.19671028852462769, 0.21891236305236816, 0.6585305336403728, 1759349582606820700, 
-0.3657035231590271, 0.7371225953102112, 0.6111649830672129, 1759349582636770870, 
